sub_num,condition,stim_id,cat,resp,rt,age,gender,date,prob_num,num_problems_solved,current_trial_prob,current_trial_stim,current_trial_exp,relevant_dim
5,immediate,38,2,1,0.7564045603864997,20,Female,2019-06-04,0,0,0,0,0,3
5,immediate,46,1,2,0.5273225893720337,20,Female,2019-06-04,0,0,1,1,1,3
5,immediate,31,1,2,0.707426318840362,20,Female,2019-06-04,0,0,2,2,2,3
5,immediate,45,1,2,0.9721219710145306,20,Female,2019-06-04,0,0,3,3,3,3
5,immediate,5,2,1,0.6076707246375008,20,Female,2019-06-04,0,0,4,4,4,3
5,immediate,21,2,2,0.5341297777779346,20,Female,2019-06-04,0,0,5,5,5,3
5,immediate,20,2,2,0.9542585507244894,20,Female,2019-06-04,0,0,6,6,6,3
5,immediate,41,1,1,0.5740818550723361,20,Female,2019-06-04,0,0,7,7,7,3
5,immediate,55,2,2,0.49930419323663955,20,Female,2019-06-04,0,0,8,8,8,3
5,immediate,1,2,1,0.4067555555554918,20,Female,2019-06-04,0,0,9,9,9,3
5,immediate,0,2,1,0.6960064927536678,20,Female,2019-06-04,0,0,10,10,10,3
5,immediate,43,1,2,0.7522776425121265,20,Female,2019-06-04,0,0,11,11,11,3
5,immediate,52,2,1,1.1021467826085427,20,Female,2019-06-04,0,0,12,12,12,3
5,immediate,29,1,1,0.774959613526562,20,Female,2019-06-04,0,0,13,13,13,3
5,immediate,51,2,1,1.7292750531400998,20,Female,2019-06-04,0,0,14,14,14,3
5,immediate,30,1,1,0.6260337777778204,20,Female,2019-06-04,0,0,15,15,15,3
5,immediate,16,2,2,0.5043605024154658,20,Female,2019-06-04,0,0,16,16,16,3
5,immediate,26,1,1,0.6360885797100764,20,Female,2019-06-04,0,0,17,17,17,3
5,immediate,39,2,2,0.49900398067643437,20,Female,2019-06-04,0,0,18,18,18,3
5,immediate,6,2,2,0.5183755748792009,20,Female,2019-06-04,0,0,19,19,19,3
5,immediate,2,2,2,0.6026159613525124,20,Female,2019-06-04,0,0,20,20,20,3
5,immediate,9,1,1,0.49470979710122265,20,Female,2019-06-04,0,0,21,21,21,3
5,immediate,22,2,2,0.7242413140097597,20,Female,2019-06-04,0,0,22,22,22,3
5,immediate,49,2,2,0.7650034396137926,20,Female,2019-06-04,0,0,23,23,23,3
5,immediate,28,1,1,0.4551967536231132,20,Female,2019-06-04,0,0,24,24,24,3
5,immediate,54,2,2,0.5054744734297856,20,Female,2019-06-04,0,0,25,25,25,3
5,immediate,44,1,1,0.6053818743962438,20,Female,2019-06-04,0,0,26,26,26,3
5,immediate,6,1,1,1.0045752270530102,20,Female,2019-06-04,1,1,0,0,27,5
5,immediate,18,1,2,0.8599222415459735,20,Female,2019-06-04,1,1,1,1,28,5
5,immediate,57,2,2,0.4623146666667708,20,Female,2019-06-04,1,1,2,2,29,5
5,immediate,39,1,1,0.5319049275362886,20,Female,2019-06-04,1,1,3,3,30,5
5,immediate,43,1,2,0.5361085217391519,20,Female,2019-06-04,1,1,4,4,31,5
5,immediate,32,2,2,0.8937754589373981,20,Female,2019-06-04,1,1,5,5,32,5
5,immediate,54,1,1,1.0497712850242351,20,Female,2019-06-04,1,1,6,6,33,5
5,immediate,8,2,2,0.7781559033819576,20,Female,2019-06-04,1,1,7,7,34,5
5,immediate,50,1,1,0.5164163091785667,20,Female,2019-06-04,1,1,8,8,35,5
5,immediate,51,1,1,0.5997610048311799,20,Female,2019-06-04,1,1,9,9,36,5
5,immediate,63,1,1,0.5571700869563756,20,Female,2019-06-04,1,1,10,10,37,5
5,immediate,12,2,2,0.6420220289855934,20,Female,2019-06-04,1,1,11,11,38,5
5,immediate,2,1,2,0.6900022415456988,20,Female,2019-06-04,1,1,12,12,39,5
5,immediate,20,2,1,0.8580133719806327,20,Female,2019-06-04,1,1,13,13,40,5
5,immediate,4,2,2,0.9654529855074543,20,Female,2019-06-04,1,1,14,14,41,5
5,immediate,49,2,2,0.628543072463799,20,Female,2019-06-04,1,1,15,15,42,5
5,immediate,59,1,1,0.5072927536234602,20,Female,2019-06-04,1,1,16,16,43,5
5,immediate,61,2,2,0.6228257391308034,20,Female,2019-06-04,1,1,17,17,44,5
5,immediate,19,1,1,0.7574570048309397,20,Female,2019-06-04,1,1,18,18,45,5
5,immediate,22,1,1,0.9271763478259345,20,Female,2019-06-04,1,1,19,19,46,5
5,immediate,3,1,1,0.7532861835748008,20,Female,2019-06-04,1,1,20,20,47,5
5,immediate,55,1,1,0.5714281739128637,20,Female,2019-06-04,1,1,21,21,48,5
5,immediate,23,1,1,0.5764721159421242,20,Female,2019-06-04,1,1,22,22,49,5
5,immediate,13,2,2,0.565965294686066,20,Female,2019-06-04,1,1,23,23,50,5
5,immediate,38,1,1,0.5712810048307801,20,Female,2019-06-04,1,1,24,24,51,5
5,immediate,24,2,2,0.5442343574877668,20,Female,2019-06-04,1,1,25,25,52,5
5,immediate,10,2,1,0.9153827246377659,20,Female,2019-06-04,2,2,0,0,53,1
5,immediate,56,1,1,0.7476402705315195,20,Female,2019-06-04,2,2,1,1,54,1
5,immediate,37,1,2,0.660962628019206,20,Female,2019-06-04,2,2,2,2,55,1
5,immediate,17,2,1,0.47651555555557934,20,Female,2019-06-04,2,2,3,3,56,1
5,immediate,5,2,2,1.2639474396137302,20,Female,2019-06-04,2,2,4,4,57,1
5,immediate,20,2,2,0.8213509565216555,20,Female,2019-06-04,2,2,5,5,58,1
5,immediate,49,1,1,0.5767451207730119,20,Female,2019-06-04,2,2,6,6,59,1
5,immediate,40,1,1,0.48553924637690216,20,Female,2019-06-04,2,2,7,7,60,1
5,immediate,47,1,1,0.4829937777781197,20,Female,2019-06-04,2,2,8,8,61,1
5,immediate,63,1,1,0.44759899516884616,20,Female,2019-06-04,2,2,9,9,62,1
5,immediate,44,1,1,0.4979407149758117,20,Female,2019-06-04,2,2,10,10,63,1
5,immediate,14,2,2,0.6289354202899631,20,Female,2019-06-04,2,2,11,11,64,1
5,immediate,15,2,1,0.4757404444444546,20,Female,2019-06-04,2,2,12,12,65,1
5,immediate,57,1,1,0.9270981256040614,20,Female,2019-06-04,2,2,13,13,66,1
5,immediate,45,1,1,0.5733014879224356,20,Female,2019-06-04,2,2,14,14,67,1
5,immediate,28,2,2,0.4182406183576859,20,Female,2019-06-04,2,2,15,15,68,1
5,immediate,31,2,2,0.5318498937199365,20,Female,2019-06-04,2,2,16,16,69,1
5,immediate,24,2,2,0.5322073043475939,20,Female,2019-06-04,2,2,17,17,70,1
5,immediate,54,1,1,0.6643230917875371,20,Female,2019-06-04,2,2,18,18,71,1
5,immediate,1,2,2,0.7690898550722522,20,Female,2019-06-04,2,2,19,19,72,1
5,immediate,59,1,1,0.5699843091788352,20,Female,2019-06-04,2,2,20,20,73,1
5,immediate,41,1,1,0.631741835748926,20,Female,2019-06-04,2,2,21,21,74,1
5,immediate,25,2,2,0.5741727536233157,20,Female,2019-06-04,2,2,22,22,75,1
5,immediate,39,1,1,0.5907153623188606,20,Female,2019-06-04,2,2,23,23,76,1
5,immediate,50,1,1,0.5651363864735686,20,Female,2019-06-04,2,2,24,24,77,1
5,immediate,23,1,1,1.0669353429952935,20,Female,2019-06-04,3,3,0,0,78,2
5,immediate,8,2,2,0.8837821835750219,20,Female,2019-06-04,3,3,1,1,79,2
5,immediate,18,1,1,0.49652189372000066,20,Female,2019-06-04,3,3,2,2,80,2
5,immediate,6,2,1,0.5263455845411045,20,Female,2019-06-04,3,3,3,3,81,2
5,immediate,47,2,1,1.010572676328593,20,Female,2019-06-04,3,3,4,4,82,2
5,immediate,46,2,2,0.538410048309288,20,Female,2019-06-04,3,3,5,5,83,2
5,immediate,33,2,1,0.3345456231886601,20,Female,2019-06-04,3,3,6,6,84,2
5,immediate,11,2,2,0.6541000966185493,20,Female,2019-06-04,3,3,7,7,85,2
5,immediate,60,1,1,0.4374631884061273,20,Female,2019-06-04,3,3,8,8,86,2
5,immediate,7,2,2,0.42359961352667597,20,Female,2019-06-04,3,3,9,9,87,2
5,immediate,54,1,1,0.5056265893722411,20,Female,2019-06-04,3,3,10,10,88,2
5,immediate,39,2,2,0.5121994202900169,20,Female,2019-06-04,3,3,11,11,89,2
5,immediate,62,1,1,0.4354893913041451,20,Female,2019-06-04,3,3,12,12,90,2
5,immediate,0,2,2,0.5977912270532215,20,Female,2019-06-04,3,3,13,13,91,2
5,immediate,3,2,2,0.49189905314005955,20,Female,2019-06-04,3,3,14,14,92,2
5,immediate,58,1,1,0.4308813913044105,20,Female,2019-06-04,3,3,15,15,93,2
5,immediate,55,1,1,0.417182608695839,20,Female,2019-06-04,3,3,16,16,94,2
5,immediate,26,1,1,0.5711628985504831,20,Female,2019-06-04,3,3,17,17,95,2
5,immediate,59,1,1,0.44850427053142994,20,Female,2019-06-04,3,3,18,18,96,2
5,immediate,2,2,1,0.5701160193239048,20,Female,2019-06-04,4,4,0,0,97,6
5,immediate,4,2,1,0.7195405603865765,20,Female,2019-06-04,4,4,1,1,98,6
5,immediate,40,2,1,0.6320847149754627,20,Female,2019-06-04,4,4,2,2,99,6
5,immediate,44,2,2,0.5155923478259865,20,Female,2019-06-04,4,4,3,3,100,6
5,immediate,46,2,2,0.5195853913041901,20,Female,2019-06-04,4,4,4,4,101,6
5,immediate,22,2,1,0.8116619130437357,20,Female,2019-06-04,4,4,5,5,102,6
5,immediate,21,1,2,0.38466380676300105,20,Female,2019-06-04,4,4,6,6,103,6
5,immediate,42,2,2,0.5448514782606253,20,Female,2019-06-04,4,4,7,7,104,6
5,immediate,34,2,2,0.4282917101450039,20,Female,2019-06-04,4,4,8,8,105,6
5,immediate,35,1,2,0.4943137391305754,20,Female,2019-06-04,4,4,9,9,106,6
5,immediate,50,2,1,0.7220467632846521,20,Female,2019-06-04,4,4,10,10,107,6
5,immediate,11,1,2,0.6669814106280683,20,Female,2019-06-04,4,4,11,11,108,6
5,immediate,48,2,2,0.7312216425120823,20,Female,2019-06-04,4,4,12,12,109,6
5,immediate,10,2,1,0.5966318067630709,20,Female,2019-06-04,4,4,13,13,110,6
5,immediate,30,2,2,0.6345804057968962,20,Female,2019-06-04,4,4,14,14,111,6
5,immediate,26,2,2,0.5760364830916842,20,Female,2019-06-04,4,4,15,15,112,6
5,immediate,23,1,2,0.6613896038647908,20,Female,2019-06-04,4,4,16,16,113,6
5,immediate,61,1,2,0.9410226086956754,20,Female,2019-06-04,4,4,17,17,114,6
5,immediate,1,1,1,0.7311155942029472,20,Female,2019-06-04,4,4,18,18,115,6
5,immediate,63,1,1,0.6121983381644895,20,Female,2019-06-04,4,4,19,19,116,6
5,immediate,33,1,1,0.5384480772945608,20,Female,2019-06-04,4,4,20,20,117,6
5,immediate,8,2,2,0.5431744927536784,20,Female,2019-06-04,4,4,21,21,118,6
5,immediate,25,1,1,0.4470885410628398,20,Female,2019-06-04,4,4,22,22,119,6
5,immediate,56,2,1,1.1064075748795403,20,Female,2019-06-04,4,4,23,23,120,6
5,immediate,13,1,1,0.5653577584539562,20,Female,2019-06-04,4,4,24,24,121,6
5,immediate,7,1,1,0.5376998647343498,20,Female,2019-06-04,4,4,25,25,122,6
5,immediate,28,2,2,0.5102457198067896,20,Female,2019-06-04,4,4,26,26,123,6
5,immediate,41,1,1,0.546039033816669,20,Female,2019-06-04,4,4,27,27,124,6
5,immediate,37,1,1,0.4544460676329436,20,Female,2019-06-04,4,4,28,28,125,6
5,immediate,9,1,1,0.5688081932366913,20,Female,2019-06-04,4,4,29,29,126,6
5,immediate,47,1,1,0.43504231884071487,20,Female,2019-06-04,4,4,30,30,127,6
5,immediate,36,2,2,0.5322623381644007,20,Female,2019-06-04,4,4,31,31,128,6
5,immediate,16,2,2,0.4729293913046604,20,Female,2019-06-04,4,4,32,32,129,6
5,immediate,19,1,1,0.6361368115940422,20,Female,2019-06-04,4,4,33,33,130,6
5,immediate,51,1,1,0.48274643478271173,20,Female,2019-06-04,4,4,34,34,131,6
5,immediate,55,1,1,0.42176216425150415,20,Female,2019-06-04,4,4,35,35,132,6
5,immediate,62,1,1,0.5832171594202009,20,Female,2019-06-04,0,5,0,0,133,3
5,immediate,43,1,2,0.5556520193240431,20,Female,2019-06-04,0,5,1,1,134,3
5,immediate,40,1,1,0.7718199033815836,20,Female,2019-06-04,0,5,2,2,135,3
5,immediate,41,1,1,0.6061900676327241,20,Female,2019-06-04,0,5,3,3,136,3
5,immediate,4,2,2,0.5641244444445874,20,Female,2019-06-04,0,5,4,4,137,3
5,immediate,12,1,2,0.393398106280074,20,Female,2019-06-04,0,5,5,5,138,3
5,immediate,52,2,2,0.4583151304345847,20,Female,2019-06-04,0,5,6,6,139,3
5,immediate,7,2,2,0.4288457584543721,20,Female,2019-06-04,0,5,7,7,140,3
5,immediate,0,2,2,0.6223981449275016,20,Female,2019-06-04,0,5,8,8,141,3
5,immediate,42,1,1,0.7408633816426118,20,Female,2019-06-04,0,5,9,9,142,3
5,immediate,3,2,2,0.5576236521737883,20,Female,2019-06-04,0,5,10,10,143,3
5,immediate,61,1,1,0.4351366183573191,20,Female,2019-06-04,0,5,11,11,144,3
5,immediate,10,1,1,0.7728200966180339,20,Female,2019-06-04,0,5,12,12,145,3
5,immediate,16,2,2,0.4789092173914469,20,Female,2019-06-04,0,5,13,13,146,3
5,immediate,18,2,2,0.5193467053140921,20,Female,2019-06-04,0,5,14,14,147,3
5,immediate,30,1,1,0.5705488695653003,20,Female,2019-06-04,0,5,15,15,148,3
5,immediate,58,1,1,0.8318747826087929,20,Female,2019-06-04,0,5,16,16,149,3
5,immediate,22,2,2,0.7156183188408249,20,Female,2019-06-04,0,5,17,17,150,3
5,immediate,43,1,1,0.8647948985508265,20,Female,2019-06-04,1,6,0,0,151,5
5,immediate,22,1,2,0.46499462801921254,20,Female,2019-06-04,1,6,1,1,152,5
5,immediate,9,2,2,0.3877627053143442,20,Female,2019-06-04,1,6,2,2,153,5
5,immediate,10,1,1,0.48446237681173443,20,Female,2019-06-04,1,6,3,3,154,5
5,immediate,33,2,2,0.4123439613526898,20,Female,2019-06-04,1,6,4,4,155,5
5,immediate,17,2,2,0.4780456811595286,20,Female,2019-06-04,1,6,5,5,156,5
5,immediate,29,2,2,0.5126922512076817,20,Female,2019-06-04,1,6,6,6,157,5
5,immediate,38,1,1,0.6934702995167754,20,Female,2019-06-04,1,6,7,7,158,5
5,immediate,12,2,2,0.5096715748791212,20,Female,2019-06-04,1,6,8,8,159,5
5,immediate,47,1,1,0.5776343188404098,20,Female,2019-06-04,1,6,9,9,160,5
5,immediate,27,1,1,0.6784491594203246,20,Female,2019-06-04,1,6,10,10,161,5
5,immediate,36,2,2,0.4787224734295705,20,Female,2019-06-04,1,6,11,11,162,5
5,immediate,30,1,1,0.5618049855074787,20,Female,2019-06-04,1,6,12,12,163,5
5,immediate,20,2,2,0.48664146859891844,20,Female,2019-06-04,1,6,13,13,164,5
5,immediate,26,2,1,0.7217660289852574,20,Female,2019-06-04,2,7,0,0,165,1
5,immediate,18,2,2,0.5389031884055839,20,Female,2019-06-04,2,7,1,1,166,1
5,immediate,29,2,1,0.5594029758453871,20,Female,2019-06-04,2,7,2,2,167,1
5,immediate,35,1,1,0.49919103381625973,20,Female,2019-06-04,2,7,3,3,168,1
5,immediate,27,2,2,0.6076042512077038,20,Female,2019-06-04,2,7,4,4,169,1
5,immediate,53,1,2,0.42145978743928936,20,Female,2019-06-04,2,7,5,5,170,1
5,immediate,9,2,2,1.3672536425119688,20,Female,2019-06-04,2,7,6,6,171,1
5,immediate,46,1,1,0.4290825893717738,20,Female,2019-06-04,2,7,7,7,172,1
5,immediate,5,2,1,0.4468912850243214,20,Female,2019-06-04,2,7,8,8,173,1
5,immediate,50,1,2,0.945301951690908,20,Female,2019-06-04,2,7,9,9,174,1
5,immediate,57,1,2,0.45188946859889256,20,Female,2019-06-04,2,7,10,10,175,1
5,immediate,52,1,2,0.5825465507246008,20,Female,2019-06-04,2,7,11,11,176,1
5,immediate,7,2,1,0.7318879227054822,20,Female,2019-06-04,2,7,12,12,177,1
5,immediate,44,1,1,0.9648742028984998,20,Female,2019-06-04,2,7,13,13,178,1
5,immediate,14,2,1,0.49938767149751584,20,Female,2019-06-04,2,7,14,14,179,1
5,immediate,40,1,1,0.7270322705312537,20,Female,2019-06-04,2,7,15,15,180,1
5,immediate,28,2,2,0.7661739903383022,20,Female,2019-06-04,2,7,16,16,181,1
5,immediate,16,2,2,0.6158030531400982,20,Female,2019-06-04,2,7,17,17,182,1
5,immediate,45,1,1,0.4301313236715032,20,Female,2019-06-04,2,7,18,18,183,1
5,immediate,42,1,1,0.5207890241545101,20,Female,2019-06-04,2,7,19,19,184,1
5,immediate,4,2,2,0.3968899710143887,20,Female,2019-06-04,2,7,20,20,185,1
5,immediate,36,1,1,0.41974106280213164,20,Female,2019-06-04,2,7,21,21,186,1
5,immediate,25,2,2,0.6132405797102365,20,Female,2019-06-04,2,7,22,22,187,1
5,immediate,49,1,1,0.731746009661947,20,Female,2019-06-04,2,7,23,23,188,1
5,immediate,62,1,1,0.5005557487925216,20,Female,2019-06-04,2,7,24,24,189,1
5,immediate,39,1,1,0.5679981449275147,20,Female,2019-06-04,2,7,25,25,190,1
5,immediate,11,2,2,0.6054282512077407,20,Female,2019-06-04,2,7,26,26,191,1
5,immediate,5,2,1,1.4352828599035092,20,Female,2019-06-04,3,8,0,0,192,2
5,immediate,32,2,1,0.7249496425120014,20,Female,2019-06-04,3,8,1,1,193,2
5,immediate,53,1,2,0.6053732173913886,20,Female,2019-06-04,3,8,2,2,194,2
5,immediate,45,2,1,1.027758376811562,20,Female,2019-06-04,3,8,3,3,195,2
5,immediate,3,2,1,0.4194853719804996,20,Female,2019-06-04,3,8,4,4,196,2
5,immediate,8,2,2,0.554792193236608,20,Female,2019-06-04,3,8,5,5,197,2
5,immediate,49,1,2,0.6718559227056176,20,Female,2019-06-04,3,8,6,6,198,2
5,immediate,51,1,1,0.5710386086957442,20,Female,2019-06-04,3,8,7,7,199,2
5,immediate,18,1,1,0.5601802512078393,20,Female,2019-06-04,3,8,8,8,200,2
5,immediate,28,1,2,0.5170887729468632,20,Female,2019-06-04,3,8,9,9,201,2
5,immediate,21,1,2,0.872902801932014,20,Female,2019-06-04,3,8,10,10,202,2
5,immediate,9,2,2,0.5348987053139354,20,Female,2019-06-04,3,8,11,11,203,2
5,immediate,23,1,1,0.7457270724635237,20,Female,2019-06-04,3,8,12,12,204,2
5,immediate,44,2,2,0.5152556521738916,20,Female,2019-06-04,3,8,13,13,205,2
5,immediate,17,1,1,0.4550811207732295,20,Female,2019-06-04,3,8,14,14,206,2
5,immediate,7,2,2,0.40972027053157944,20,Female,2019-06-04,3,8,15,15,207,2
5,immediate,31,1,1,0.5557701256038854,20,Female,2019-06-04,3,8,16,16,208,2
5,immediate,27,1,1,0.5440231884058448,20,Female,2019-06-04,3,8,17,17,209,2
5,immediate,24,1,1,0.5006914782607055,20,Female,2019-06-04,3,8,18,18,210,2
5,immediate,29,1,1,0.46332042512085536,20,Female,2019-06-04,3,8,19,19,211,2
5,immediate,10,2,2,0.4497604637681434,20,Female,2019-06-04,3,8,20,20,212,2
5,immediate,47,2,2,0.42293024154560044,20,Female,2019-06-04,3,8,21,21,213,2
5,immediate,2,2,2,0.4403366956521495,20,Female,2019-06-04,3,8,22,22,214,2
5,immediate,12,2,2,0.7394686763282152,20,Female,2019-06-04,4,9,0,0,215,6
5,immediate,21,1,1,0.8932857198069541,20,Female,2019-06-04,4,9,1,1,216,6
5,immediate,13,1,2,0.7778909371982081,20,Female,2019-06-04,4,9,2,2,217,6
5,immediate,39,1,2,0.612297584541011,20,Female,2019-06-04,4,9,3,3,218,6
5,immediate,10,2,2,0.39461874396147323,20,Female,2019-06-04,4,9,4,4,219,6
5,immediate,11,1,2,0.3479151304345578,20,Female,2019-06-04,4,9,5,5,220,6
5,immediate,32,2,2,0.4757586859905132,20,Female,2019-06-04,4,9,6,6,221,6
5,immediate,36,2,2,0.4961963285022648,20,Female,2019-06-04,4,9,7,7,222,6
5,immediate,59,1,1,0.48546195169092243,20,Female,2019-06-04,4,9,8,8,223,6
5,immediate,30,2,2,0.5367265700483586,20,Female,2019-06-04,4,9,9,9,224,6
5,immediate,18,2,2,0.5089215072462139,20,Female,2019-06-04,4,9,10,10,225,6
5,immediate,29,1,1,0.6373478647342381,20,Female,2019-06-04,4,9,11,11,226,6
5,immediate,24,2,2,0.4361232077294517,20,Female,2019-06-04,4,9,12,12,227,6
5,immediate,6,2,2,0.5982630338166928,20,Female,2019-06-04,4,9,13,13,228,6
5,immediate,50,2,2,0.4440381835752305,20,Female,2019-06-04,4,9,14,14,229,6
5,immediate,22,2,2,0.48702144927528934,20,Female,2019-06-04,4,9,15,15,230,6
5,immediate,28,2,2,0.45849167149754066,20,Female,2019-06-04,4,9,16,16,231,6
5,immediate,45,1,1,0.5250538357490768,20,Female,2019-06-04,4,9,17,17,232,6
5,immediate,41,1,1,0.7357885217393232,20,Female,2019-06-04,0,10,0,0,233,3
5,immediate,12,1,2,0.6009256811594241,20,Female,2019-06-04,0,10,1,1,234,3
5,immediate,45,1,1,0.5269444637679044,20,Female,2019-06-04,0,10,2,2,235,3
5,immediate,46,1,2,0.4548464541062458,20,Female,2019-06-04,0,10,3,3,236,3
5,immediate,19,2,2,0.569037913043303,20,Female,2019-06-04,0,10,4,4,237,3
5,immediate,61,1,1,0.6222673623187802,20,Female,2019-06-04,0,10,5,5,238,3
5,immediate,52,2,2,0.436834318840738,20,Female,2019-06-04,0,10,6,6,239,3
5,immediate,31,1,1,0.5544607536230615,20,Female,2019-06-04,0,10,7,7,240,3
5,immediate,15,1,1,0.6871324444446145,20,Female,2019-06-04,0,10,8,8,241,3
5,immediate,5,2,2,0.502983111111007,20,Female,2019-06-04,0,10,9,9,242,3
5,immediate,49,2,2,0.7855669178743483,20,Female,2019-06-04,0,10,10,10,243,3
5,immediate,32,2,2,0.4438662801931059,20,Female,2019-06-04,0,10,11,11,244,3
5,immediate,53,2,2,0.550377429951368,20,Female,2019-06-04,0,10,12,12,245,3
5,immediate,2,2,2,0.44274674396137925,20,Female,2019-06-04,0,10,13,13,246,3
5,immediate,11,1,1,0.5890167342995483,20,Female,2019-06-04,0,10,14,14,247,3
5,immediate,30,1,1,0.48268398067648377,20,Female,2019-06-04,0,10,15,15,248,3
5,immediate,36,2,2,0.6962662028986415,20,Female,2019-06-04,1,11,0,0,249,5
5,immediate,0,2,1,0.7687296618360051,20,Female,2019-06-04,1,11,1,1,250,5
5,immediate,40,2,1,0.6022548405794623,20,Female,2019-06-04,1,11,2,2,251,5
5,immediate,5,2,1,0.367877874396072,20,Female,2019-06-04,1,11,3,3,252,5
5,immediate,12,2,2,0.4322513623192208,20,Female,2019-06-04,1,11,4,4,253,5
5,immediate,59,1,1,0.5632896618358245,20,Female,2019-06-04,1,11,5,5,254,5
5,immediate,15,1,2,0.5041273816427747,20,Female,2019-06-04,1,11,6,6,255,5
5,immediate,31,1,1,0.45984371014492353,20,Female,2019-06-04,1,11,7,7,256,5
5,immediate,44,2,2,0.8314110144929145,20,Female,2019-06-04,1,11,8,8,257,5
5,immediate,45,2,2,0.39414662801937084,20,Female,2019-06-04,1,11,9,9,258,5
5,immediate,57,2,2,0.5075839999999516,20,Female,2019-06-04,1,11,10,10,259,5
5,immediate,48,2,2,0.5112044830916602,20,Female,2019-06-04,1,11,11,11,260,5
5,immediate,39,1,1,0.45110229951660585,20,Female,2019-06-04,1,11,12,12,261,5
5,immediate,14,1,1,0.40522914009670785,20,Female,2019-06-04,1,11,13,13,262,5
5,immediate,54,1,1,0.43076915942037886,20,Female,2019-06-04,1,11,14,14,263,5
5,immediate,1,2,2,0.44864123671504785,20,Female,2019-06-04,1,11,15,15,264,5
5,immediate,46,1,1,0.48292112077297134,20,Female,2019-06-04,1,11,16,16,265,5
5,immediate,37,2,2,0.39004660869568397,20,Female,2019-06-04,1,11,17,17,266,5
5,immediate,17,2,2,0.5187886376811548,20,Female,2019-06-04,1,11,18,18,267,5
5,immediate,49,1,2,0.7915690048307624,20,Female,2019-06-04,2,12,0,0,268,1
5,immediate,32,1,1,1.5464298357492225,20,Female,2019-06-04,2,12,1,1,269,1
5,immediate,1,2,1,0.39095559420275094,20,Female,2019-06-04,2,12,2,2,270,1
5,immediate,12,2,1,0.4237106086957283,20,Female,2019-06-04,2,12,3,3,271,1
5,immediate,37,1,2,0.5215907246374627,20,Female,2019-06-04,2,12,4,4,272,1
5,immediate,39,1,1,0.5898948019325871,20,Female,2019-06-04,2,12,5,5,273,1
5,immediate,23,2,2,0.4513954009662484,20,Female,2019-06-04,2,12,6,6,274,1
5,immediate,41,1,1,0.4538910917872272,20,Female,2019-06-04,2,12,7,7,275,1
5,immediate,3,2,2,0.6639452753624937,20,Female,2019-06-04,2,12,8,8,276,1
5,immediate,58,1,1,0.5902417004831477,20,Female,2019-06-04,2,12,9,9,277,1
5,immediate,36,1,1,0.8999760386473099,20,Female,2019-06-04,2,12,10,10,278,1
5,immediate,5,2,2,0.5132330048309086,20,Female,2019-06-04,2,12,11,11,279,1
5,immediate,40,1,1,0.5400808502413383,20,Female,2019-06-04,2,12,12,12,280,1
5,immediate,47,1,1,0.6085973333333641,20,Female,2019-06-04,2,12,13,13,281,1
5,immediate,10,2,2,0.37465878260900354,20,Female,2019-06-04,2,12,14,14,282,1
5,immediate,48,1,1,0.374224695652174,20,Female,2019-06-04,2,12,15,15,283,1
5,immediate,43,1,1,0.598369391304459,20,Female,2019-06-04,2,12,16,16,284,1
5,immediate,36,2,1,0.8883592657007284,20,Female,2019-06-04,3,13,0,0,285,2
5,immediate,14,2,1,0.7082539903385623,20,Female,2019-06-04,3,13,1,1,286,2
5,immediate,9,2,2,0.7170028212563011,20,Female,2019-06-04,3,13,2,2,287,2
5,immediate,3,2,2,0.4856626086952929,20,Female,2019-06-04,3,13,3,3,288,2
5,immediate,45,2,2,0.4722649661835021,20,Female,2019-06-04,3,13,4,4,289,2
5,immediate,24,1,1,0.3630806570049572,20,Female,2019-06-04,3,13,5,5,290,2
5,immediate,35,2,2,0.4106332753622155,20,Female,2019-06-04,3,13,6,6,291,2
5,immediate,61,1,1,0.4226609468596507,20,Female,2019-06-04,3,13,7,7,292,2
5,immediate,56,1,1,0.47219601932374644,20,Female,2019-06-04,3,13,8,8,293,2
5,immediate,11,2,2,0.42716475362340134,20,Female,2019-06-04,3,13,9,9,294,2
5,immediate,1,2,2,0.4930386859900864,20,Female,2019-06-04,3,13,10,10,295,2
5,immediate,62,1,1,0.4165960966183775,20,Female,2019-06-04,3,13,11,11,296,2
5,immediate,15,2,2,0.5304109758453706,20,Female,2019-06-04,3,13,12,12,297,2
5,immediate,39,2,2,0.5503638260870503,20,Female,2019-06-04,3,13,13,13,298,2
5,immediate,19,1,1,0.9717441545894872,20,Female,2019-06-04,4,14,0,0,299,6
5,immediate,50,2,1,0.6763588019325653,20,Female,2019-06-04,4,14,1,1,300,6
5,immediate,1,1,2,0.7425224347825861,20,Female,2019-06-04,4,14,2,2,301,6
5,immediate,25,1,1,0.5116085797103551,20,Female,2019-06-04,4,14,3,3,302,6
5,immediate,61,1,2,0.35552185507231115,20,Female,2019-06-04,4,14,4,4,303,6
5,immediate,45,1,1,0.8034986666666555,20,Female,2019-06-04,4,14,5,5,304,6
5,immediate,13,1,1,0.4361266086957585,20,Female,2019-06-04,4,14,6,6,305,6
5,immediate,53,1,1,0.4218546086958668,20,Female,2019-06-04,4,14,7,7,306,6
5,immediate,51,1,2,0.44900266666672906,20,Female,2019-06-04,4,14,8,8,307,6
5,immediate,43,1,1,0.9796084251206594,20,Female,2019-06-04,4,14,9,9,308,6
5,immediate,42,2,2,0.4184261256041282,20,Female,2019-06-04,4,14,10,10,309,6
5,immediate,7,1,1,0.7239216231882892,20,Female,2019-06-04,4,14,11,11,310,6
5,immediate,3,1,1,0.492783304347995,20,Female,2019-06-04,4,14,12,12,311,6
5,immediate,2,2,2,0.5320483864734342,20,Female,2019-06-04,4,14,13,13,312,6
5,immediate,11,1,1,0.42425167149758636,20,Female,2019-06-04,4,14,14,14,313,6
5,immediate,63,1,1,0.47407242512053926,20,Female,2019-06-04,4,14,15,15,314,6
5,immediate,8,2,2,0.6157084444444081,20,Female,2019-06-04,4,14,16,16,315,6
5,immediate,40,2,2,0.510051246376861,20,Female,2019-06-04,4,14,17,17,316,6
5,immediate,62,2,2,0.6577344927536615,20,Female,2019-06-04,4,14,18,18,317,6
5,immediate,49,1,1,0.3929476328498822,20,Female,2019-06-04,4,14,19,19,318,6
5,immediate,20,2,2,0.5380745893721723,20,Female,2019-06-04,4,14,20,20,319,6
5,immediate,59,1,2,0.922478685990427,20,Female,2019-06-04,0,15,0,0,320,3
5,immediate,34,2,2,0.4397909951690053,20,Female,2019-06-04,0,15,1,1,321,3
5,immediate,53,2,1,0.4824190144927343,20,Female,2019-06-04,0,15,2,2,322,3
5,immediate,20,2,1,0.3574910144925525,20,Female,2019-06-04,0,15,3,3,323,3
5,immediate,11,1,1,0.3622709178744117,20,Female,2019-06-04,0,15,4,4,324,3
5,immediate,7,2,1,0.4588991690820876,20,Female,2019-06-04,0,15,5,5,325,3
5,immediate,55,2,1,0.7173787826086482,20,Female,2019-06-04,0,15,6,6,326,3
5,immediate,57,1,1,0.4219424154589433,20,Female,2019-06-04,0,15,7,7,327,3
5,immediate,21,2,2,0.4238234589370222,20,Female,2019-06-04,0,15,8,8,328,3
5,immediate,48,2,1,1.1692685603866266,20,Female,2019-06-04,0,15,9,9,329,3
5,immediate,52,2,2,0.6769211980677028,20,Female,2019-06-04,0,15,10,10,330,3
5,immediate,10,1,1,0.500228019323913,20,Female,2019-06-04,0,15,11,11,331,3
5,immediate,43,1,1,0.4714694492754461,20,Female,2019-06-04,0,15,12,12,332,3
5,immediate,3,2,1,0.5150268599036281,20,Female,2019-06-04,0,15,13,13,333,3
5,immediate,61,1,2,0.5509218937195328,20,Female,2019-06-04,0,15,14,14,334,3
5,immediate,9,1,1,0.9077673429951574,20,Female,2019-06-04,0,15,15,15,335,3
5,immediate,4,2,1,0.5048134492753888,20,Female,2019-06-04,0,15,16,16,336,3
5,immediate,12,1,2,0.7307584927534663,20,Female,2019-06-04,0,15,17,17,337,3
5,immediate,40,1,1,0.6564980869561623,20,Female,2019-06-04,0,15,18,18,338,3
5,immediate,56,1,1,0.3916398067631235,20,Female,2019-06-04,0,15,19,19,339,3
5,immediate,19,2,2,0.45642821256024035,20,Female,2019-06-04,0,15,20,20,340,3
5,immediate,23,2,2,0.42698944927496996,20,Female,2019-06-04,0,15,21,21,341,3
5,immediate,58,1,1,0.5089091400964207,20,Female,2019-06-04,0,15,22,22,342,3
5,immediate,28,1,1,0.7232615265702407,20,Female,2019-06-04,0,15,23,23,343,3
5,immediate,42,1,1,0.4833338743960667,20,Female,2019-06-04,0,15,24,24,344,3
5,immediate,37,2,2,0.5354666666667072,20,Female,2019-06-04,0,15,25,25,345,3
5,immediate,1,2,2,0.5388568115945418,20,Female,2019-06-04,0,15,26,26,346,3
5,immediate,0,2,2,0.3993321739126259,20,Female,2019-06-04,0,15,27,27,347,3
5,immediate,46,1,1,0.40050056038671755,20,Female,2019-06-04,0,15,28,28,348,3
5,immediate,29,1,1,0.6097425314010252,20,Female,2019-06-04,0,15,29,29,349,3
5,immediate,31,1,1,0.5553125410629036,20,Female,2019-06-04,1,16,0,0,350,5
5,immediate,13,2,1,0.5433807149756831,20,Female,2019-06-04,1,16,1,1,351,5
5,immediate,49,2,2,0.5161071304346478,20,Female,2019-06-04,1,16,2,2,352,5
5,immediate,23,1,1,0.4716518647342127,20,Female,2019-06-04,1,16,3,3,353,5
5,immediate,16,2,2,0.5387340676329586,20,Female,2019-06-04,1,16,4,4,354,5
5,immediate,55,1,1,0.43131145893721623,20,Female,2019-06-04,1,16,5,5,355,5
5,immediate,59,1,1,0.5452676328500274,20,Female,2019-06-04,1,16,6,6,356,5
5,immediate,54,1,1,0.8859247922705435,20,Female,2019-06-04,1,16,7,7,357,5
5,immediate,7,1,1,0.8663914975845728,20,Female,2019-06-04,1,16,8,8,358,5
5,immediate,19,1,1,0.4467679227050212,20,Female,2019-06-04,1,16,9,9,359,5
5,immediate,15,1,1,0.4909696618360613,20,Female,2019-06-04,1,16,10,10,360,5
5,immediate,56,2,2,0.47835980676291,20,Female,2019-06-04,1,16,11,11,361,5
5,immediate,34,1,1,0.7213365797101687,20,Female,2019-06-04,1,16,12,12,362,5
5,immediate,28,2,2,0.41305661835758656,20,Female,2019-06-04,1,16,13,13,363,5
5,immediate,9,2,2,0.6238636521738954,20,Female,2019-06-04,2,17,0,0,364,1
5,immediate,61,1,1,1.1902769468601946,20,Female,2019-06-04,2,17,1,1,365,1
5,immediate,26,2,1,0.7993893719808511,20,Female,2019-06-04,2,17,2,2,366,1
5,immediate,14,2,2,0.4260996328503097,20,Female,2019-06-04,2,17,3,3,367,1
5,immediate,63,1,1,0.3640728115942693,20,Female,2019-06-04,2,17,4,4,368,1
5,immediate,11,2,2,0.540542144927258,20,Female,2019-06-04,2,17,5,5,369,1
5,immediate,29,2,2,0.6411479806761236,20,Female,2019-06-04,2,17,6,6,370,1
5,immediate,58,1,1,0.4558268599034818,20,Female,2019-06-04,2,17,7,7,371,1
5,immediate,31,2,2,0.6663327536230099,20,Female,2019-06-04,2,17,8,8,372,1
5,immediate,21,2,2,0.4659048502417136,20,Female,2019-06-04,2,17,9,9,373,1
5,immediate,46,1,1,0.4629617777777639,20,Female,2019-06-04,2,17,10,10,374,1
5,immediate,15,2,2,0.5776667826085031,20,Female,2019-06-04,2,17,11,11,375,1
5,immediate,20,2,2,0.4389642512073806,20,Female,2019-06-04,2,17,12,12,376,1
5,immediate,49,1,1,0.3954918647341401,20,Female,2019-06-04,2,17,13,13,377,1
5,immediate,1,2,2,0.47659470531380066,20,Female,2019-06-04,2,17,14,14,378,1
5,immediate,36,2,1,0.615865816425412,20,Female,2019-06-04,3,18,0,0,379,2
5,immediate,4,2,1,0.9101254492757107,20,Female,2019-06-04,3,18,1,1,380,2
5,immediate,49,1,1,0.5718687536227662,20,Female,2019-06-04,3,18,2,2,381,2
5,immediate,27,1,1,0.3211903381643424,20,Female,2019-06-04,3,18,3,3,382,2
5,immediate,56,1,1,0.41646098550700117,20,Female,2019-06-04,3,18,4,4,383,2
5,immediate,31,1,2,0.43402790338132036,20,Female,2019-06-04,3,18,5,5,384,2
5,immediate,44,2,2,0.547899362318276,20,Female,2019-06-04,3,18,6,6,385,2
5,immediate,42,2,2,0.40869565217417403,20,Female,2019-06-04,3,18,7,7,386,2
5,immediate,40,2,2,0.4582724637684805,20,Female,2019-06-04,3,18,8,8,387,2
5,immediate,10,2,2,0.5090519806763041,20,Female,2019-06-04,3,18,9,9,388,2
5,immediate,5,2,2,0.5928054106279887,20,Female,2019-06-04,3,18,10,10,389,2
5,immediate,7,2,2,0.5824936811595762,20,Female,2019-06-04,3,18,11,11,390,2
5,immediate,14,2,2,0.6520789951691768,20,Female,2019-06-04,3,18,12,12,391,2
5,immediate,15,2,2,0.43529739130462985,20,Female,2019-06-04,3,18,13,13,392,2
5,immediate,11,2,2,0.38960108212540945,20,Female,2019-06-04,3,18,14,14,393,2
5,immediate,39,2,2,0.4063845410628346,20,Female,2019-06-04,3,18,15,15,394,2
5,immediate,20,1,1,0.40757549758473033,20,Female,2019-06-04,3,18,16,16,395,2
5,immediate,46,2,2,0.6486740096624999,20,Female,2019-06-04,3,18,17,17,396,2
5,immediate,27,1,1,1.1436994782607144,20,Female,2019-06-04,4,19,0,0,397,6
5,immediate,32,2,2,0.6830531400964901,20,Female,2019-06-04,4,19,1,1,398,6
5,immediate,15,1,1,0.6589569855068476,20,Female,2019-06-04,4,19,2,2,399,6
5,immediate,50,2,2,0.5759922705310601,20,Female,2019-06-04,4,19,3,3,400,6
5,immediate,9,1,2,0.38376316908215813,20,Female,2019-06-04,4,19,4,4,401,6
5,immediate,42,2,1,0.7683082512075998,20,Female,2019-06-04,4,19,5,5,402,6
5,immediate,7,1,1,0.4777649468605887,20,Female,2019-06-04,4,19,6,6,403,6
5,immediate,18,2,1,0.5282031304350312,20,Female,2019-06-04,4,19,7,7,404,6
5,immediate,34,2,1,0.6923037681153801,20,Female,2019-06-04,4,19,8,8,405,6
5,immediate,53,1,1,0.4126305700483499,20,Female,2019-06-04,4,19,9,9,406,6
5,immediate,11,1,2,0.4303019903381937,20,Female,2019-06-04,4,19,10,10,407,6
5,immediate,21,1,1,0.560211478261408,20,Female,2019-06-04,4,19,11,11,408,6
5,immediate,63,1,1,0.5969777777781928,20,Female,2019-06-04,4,19,12,12,409,6
5,immediate,2,2,2,0.4944284444445657,20,Female,2019-06-04,4,19,13,13,410,6
5,immediate,4,2,2,0.642140753622698,20,Female,2019-06-04,4,19,14,14,411,6
5,immediate,60,2,2,0.728500251208061,20,Female,2019-06-04,4,19,15,15,412,6
5,immediate,46,2,2,0.3856142222221024,20,Female,2019-06-04,4,19,16,16,413,6
5,immediate,16,2,2,0.4185371207731805,20,Female,2019-06-04,4,19,17,17,414,6
5,immediate,5,1,1,0.4040533333336498,20,Female,2019-06-04,4,19,18,18,415,6
5,immediate,30,2,2,0.5172582028981196,20,Female,2019-06-04,4,19,19,19,416,6
5,immediate,56,2,2,0.600882086956517,20,Female,2019-06-04,4,19,20,20,417,6
5,immediate,41,1,1,0.5108776811593998,20,Female,2019-06-04,4,19,21,21,418,6
5,immediate,3,1,1,0.6748320772949228,20,Female,2019-06-04,4,19,22,22,419,6
5,immediate,49,2,1,0.40255845410592883,20,Female,2019-06-04,0,20,0,0,420,3
5,immediate,55,2,1,1.475644289855154,20,Female,2019-06-04,0,20,1,1,421,3
5,immediate,4,2,1,0.5587824541062218,20,Female,2019-06-04,0,20,2,2,422,3
5,immediate,32,2,2,0.5042516714975136,20,Female,2019-06-04,0,20,3,3,423,3
5,immediate,58,1,1,0.4120307632856566,20,Female,2019-06-04,0,20,4,4,424,3
5,immediate,29,1,1,0.5256517874395286,20,Female,2019-06-04,0,20,5,5,425,3
5,immediate,25,1,1,0.433890009661809,20,Female,2019-06-04,0,20,6,6,426,3
5,immediate,19,2,2,0.6436535652173916,20,Female,2019-06-04,0,20,7,7,427,3
5,immediate,17,2,2,0.3628500096619973,20,Female,2019-06-04,0,20,8,8,428,3
5,immediate,40,1,1,0.5552871884056003,20,Female,2019-06-04,0,20,9,9,429,3
