sub_num,condition,stim_id,cat,resp,rt,age,gender,date,prob_num,num_problems_solved,current_trial_prob,current_trial_stim,current_trial_exp,relevant_dim
17,immediate,12,2,1,3.9040688875411433,19,Female,2019-06-04,0,0,0,0,0,5
17,immediate,24,2,1,0.8621692674278165,19,Female,2019-06-04,0,0,1,1,1,5
17,immediate,54,1,1,0.9866140980029741,19,Female,2019-06-04,0,0,2,2,2,5
17,immediate,58,1,1,1.0179574217327172,19,Female,2019-06-04,0,0,3,3,3,5
17,immediate,28,2,2,0.9220831981965603,19,Female,2019-06-04,0,0,4,4,4,5
17,immediate,26,1,1,0.7523581850327901,19,Female,2019-06-04,0,0,5,5,5,5
17,immediate,63,1,2,1.5241581598656921,19,Female,2019-06-04,0,0,6,6,6,5
17,immediate,19,1,2,0.8961461773269548,19,Female,2019-06-04,0,0,7,7,7,5
17,immediate,50,1,1,1.0851274729302531,19,Female,2019-06-04,0,0,8,8,8,5
17,immediate,52,2,1,1.1669408568523068,19,Female,2019-06-04,0,0,9,9,9,5
17,immediate,61,2,1,1.7784420658954332,19,Female,2019-06-04,0,0,10,10,10,5
17,immediate,32,2,2,0.7243740904341394,19,Female,2019-06-04,0,0,11,11,11,5
17,immediate,23,1,1,0.5166299619741039,19,Female,2019-06-04,0,0,12,12,12,5
17,immediate,16,2,2,0.49162140544649446,19,Female,2019-06-04,0,0,13,13,13,5
17,immediate,57,2,2,0.6069791579375305,19,Female,2019-06-04,0,0,14,14,14,5
17,immediate,38,1,1,0.9650702006238134,19,Female,2019-06-04,0,0,15,15,15,5
17,immediate,35,1,2,0.8836711164731241,19,Female,2019-06-04,0,0,16,16,16,5
17,immediate,17,2,2,0.9764099564290518,19,Female,2019-06-04,0,0,17,17,17,5
17,immediate,47,1,1,0.6234253130351135,19,Female,2019-06-04,0,0,18,18,18,5
17,immediate,59,1,1,0.8219982667433214,19,Female,2019-06-04,0,0,19,19,19,5
17,immediate,53,2,2,0.8492109598992101,19,Female,2019-06-04,0,0,20,20,20,5
17,immediate,18,1,1,0.5904050027620542,19,Female,2019-06-04,0,0,21,21,21,5
17,immediate,56,2,2,0.37224185336708615,19,Female,2019-06-04,0,0,22,22,22,5
17,immediate,37,2,2,0.5165381358292507,19,Female,2019-06-04,0,0,23,23,23,5
17,immediate,14,1,1,0.6482019853610836,19,Female,2019-06-04,0,0,24,24,24,5
17,immediate,42,1,1,0.5274184517384128,19,Female,2019-06-04,0,0,25,25,25,5
17,immediate,8,2,2,0.48360996088013053,19,Female,2019-06-04,0,0,26,26,26,5
17,immediate,31,1,1,0.6785213084585848,19,Female,2019-06-04,0,0,27,27,27,5
17,immediate,48,2,2,0.49150639088293246,19,Female,2019-06-04,0,0,28,28,28,5
17,immediate,25,1,1,1.3301533249250497,19,Female,2019-06-04,1,1,0,0,29,6
17,immediate,55,1,2,1.1618307474127505,19,Female,2019-06-04,1,1,1,1,30,6
17,immediate,58,2,1,0.8614998950342851,19,Female,2019-06-04,1,1,2,2,31,6
17,immediate,3,1,1,1.0186150453282607,19,Female,2019-06-04,1,1,3,3,32,6
17,immediate,1,1,1,0.8268109460477717,19,Female,2019-06-04,1,1,4,4,33,6
17,immediate,16,2,1,0.5982136259499384,19,Female,2019-06-04,1,1,5,5,34,6
17,immediate,35,1,1,0.4088239049724507,19,Female,2019-06-04,1,1,6,6,35,6
17,immediate,50,2,1,0.5224848834677687,19,Female,2019-06-04,1,1,7,7,36,6
17,immediate,62,2,1,0.6223252543859417,19,Female,2019-06-04,1,1,8,8,37,6
17,immediate,42,2,1,0.6770588920953742,19,Female,2019-06-04,1,1,9,9,38,6
17,immediate,51,1,1,1.260643098368746,19,Female,2019-06-04,1,1,10,10,39,6
17,immediate,32,2,1,1.0106165862762282,19,Female,2019-06-04,1,1,11,11,40,6
17,immediate,20,2,1,0.49239373442651413,19,Female,2019-06-04,1,1,12,12,41,6
17,immediate,40,2,1,0.7830729479883303,19,Female,2019-06-04,1,1,13,13,42,6
17,immediate,30,2,1,0.8897464825495263,19,Female,2019-06-04,1,1,14,14,43,6
17,immediate,26,2,1,0.6787686516054237,19,Female,2019-06-04,1,1,15,15,44,6
17,immediate,5,1,2,0.7826462810571684,19,Female,2019-06-04,1,1,16,16,45,6
17,immediate,49,1,1,0.8639467371267529,19,Female,2019-06-04,1,1,17,17,46,6
17,immediate,18,2,2,0.9886296354816295,19,Female,2019-06-04,1,1,18,18,47,6
17,immediate,56,2,2,1.4038844623046316,19,Female,2019-06-04,1,1,19,19,48,6
17,immediate,10,2,2,1.0446717184440786,19,Female,2019-06-04,1,1,20,20,49,6
17,immediate,45,1,1,0.7368704846339824,19,Female,2019-06-04,1,1,21,21,50,6
17,immediate,9,1,2,0.761530905681866,19,Female,2019-06-04,1,1,22,22,51,6
17,immediate,41,1,1,0.4513050906625722,19,Female,2019-06-04,1,1,23,23,52,6
17,immediate,13,1,1,0.5655451613038167,19,Female,2019-06-04,1,1,24,24,53,6
17,immediate,31,1,1,0.8911730341551447,19,Female,2019-06-04,1,1,25,25,54,6
17,immediate,17,1,1,0.423931006102066,19,Female,2019-06-04,1,1,26,26,55,6
17,immediate,24,2,2,0.42578082367072057,19,Female,2019-06-04,1,1,27,27,56,6
17,immediate,47,1,1,0.44373793622435187,19,Female,2019-06-04,1,1,28,28,57,6
17,immediate,59,1,1,0.42998565718880855,19,Female,2019-06-04,1,1,29,29,58,6
17,immediate,29,1,1,0.43170283699510037,19,Female,2019-06-04,1,1,30,30,59,6
17,immediate,48,2,2,1.0838032595493132,19,Female,2019-06-04,1,1,31,31,60,6
17,immediate,15,1,1,0.44512676800150075,19,Female,2019-06-04,1,1,32,32,61,6
17,immediate,44,2,2,0.6073653224284499,19,Female,2019-06-04,1,1,33,33,62,6
17,immediate,21,1,1,1.141324145361068,19,Female,2019-06-04,1,1,34,34,63,6
17,immediate,62,1,2,2.5584266255009425,19,Female,2019-06-04,2,2,0,0,64,4
17,immediate,30,1,1,0.5794201843764313,19,Female,2019-06-04,2,2,1,1,65,4
17,immediate,35,2,1,0.5501947363518411,19,Female,2019-06-04,2,2,2,2,66,4
17,immediate,36,1,1,0.7153723457377055,19,Female,2019-06-04,2,2,3,3,67,4
17,immediate,2,2,2,0.7717962646856904,19,Female,2019-06-04,2,2,4,4,68,4
17,immediate,28,1,1,0.6058512731833616,19,Female,2019-06-04,2,2,5,5,69,4
17,immediate,37,1,1,0.5158665991839371,19,Female,2019-06-04,2,2,6,6,70,4
17,immediate,60,1,1,0.4639267023321736,19,Female,2019-06-04,2,2,7,7,71,4
17,immediate,59,2,2,0.5148169366984803,19,Female,2019-06-04,2,2,8,8,72,4
17,immediate,6,1,1,0.4383229763534473,19,Female,2019-06-04,2,2,9,9,73,4
17,immediate,12,1,1,0.4725982439249492,19,Female,2019-06-04,2,2,10,10,74,4
17,immediate,20,1,1,0.39572461184980057,19,Female,2019-06-04,2,2,11,11,75,4
17,immediate,39,1,1,0.38067470882378984,19,Female,2019-06-04,2,2,12,12,76,4
17,immediate,23,1,1,0.3817098398976668,19,Female,2019-06-04,2,2,13,13,77,4
17,immediate,47,1,1,0.3826568549757212,19,Female,2019-06-04,2,2,14,14,78,4
17,immediate,47,1,1,0.9169155814743135,19,Female,2019-06-04,3,3,0,0,79,1
17,immediate,57,1,1,0.7003848968579405,19,Female,2019-06-04,3,3,1,1,80,1
17,immediate,58,1,1,0.7565645644463075,19,Female,2019-06-04,3,3,2,2,81,1
17,immediate,13,2,1,0.7184057002705231,19,Female,2019-06-04,3,3,3,3,82,1
17,immediate,51,1,1,0.40707116958947154,19,Female,2019-06-04,3,3,4,4,83,1
17,immediate,20,2,2,0.3282490918645635,19,Female,2019-06-04,3,3,5,5,84,1
17,immediate,15,2,2,0.6635842557425349,19,Female,2019-06-04,3,3,6,6,85,1
17,immediate,14,2,2,1.0547611546335247,19,Female,2019-06-04,3,3,7,7,86,1
17,immediate,27,2,2,0.6387043176546285,19,Female,2019-06-04,3,3,8,8,87,1
17,immediate,19,2,2,0.4311964018997969,19,Female,2019-06-04,3,3,9,9,88,1
17,immediate,53,1,1,0.4011779099073465,19,Female,2019-06-04,3,3,10,10,89,1
17,immediate,59,1,1,0.4823976702755317,19,Female,2019-06-04,3,3,11,11,90,1
17,immediate,31,2,1,0.6453473362544173,19,Female,2019-06-04,3,3,12,12,91,1
17,immediate,45,1,1,0.46036805278708925,19,Female,2019-06-04,3,3,13,13,92,1
17,immediate,24,2,2,0.43114136804797454,19,Female,2019-06-04,3,3,14,14,93,1
17,immediate,50,1,1,0.528924462330906,19,Female,2019-06-04,3,3,15,15,94,1
17,immediate,26,2,2,0.5186906395756523,19,Female,2019-06-04,3,3,16,16,95,1
17,immediate,61,1,1,0.6027907109037187,19,Female,2019-06-04,3,3,17,17,96,1
17,immediate,48,1,1,0.5127469837279932,19,Female,2019-06-04,3,3,18,18,97,1
17,immediate,38,1,1,0.5486986194864585,19,Female,2019-06-04,3,3,19,19,98,1
17,immediate,2,2,2,0.6335382468259922,19,Female,2019-06-04,3,3,20,20,99,1
17,immediate,39,1,1,0.9201489747792948,19,Female,2019-06-04,3,3,21,21,100,1
17,immediate,32,1,1,0.5977158478617639,19,Female,2019-06-04,3,3,22,22,101,1
17,immediate,18,2,2,0.4596705451112939,19,Female,2019-06-04,3,3,23,23,102,1
17,immediate,30,2,2,0.6419191602199135,19,Female,2019-06-04,3,3,24,24,103,1
17,immediate,56,1,1,0.9293730191293434,19,Female,2019-06-04,4,4,0,0,104,3
17,immediate,25,1,1,0.8951874134490936,19,Female,2019-06-04,4,4,1,1,105,3
17,immediate,51,2,1,0.6683619978284696,19,Female,2019-06-04,4,4,2,2,106,3
17,immediate,48,2,1,0.7558642741587391,19,Female,2019-06-04,4,4,3,3,107,3
17,immediate,47,1,1,0.5093435420094465,19,Female,2019-06-04,4,4,4,4,108,3
17,immediate,49,2,2,0.6251588793256815,19,Female,2019-06-04,4,4,5,5,109,3
17,immediate,12,1,1,0.7594581700996059,19,Female,2019-06-04,4,4,6,6,110,3
17,immediate,15,1,1,0.5132500178551709,19,Female,2019-06-04,4,4,7,7,111,3
17,immediate,0,2,2,0.7015393710007629,19,Female,2019-06-04,4,4,8,8,112,3
17,immediate,39,2,2,0.6143549306161731,19,Female,2019-06-04,4,4,9,9,113,3
17,immediate,17,2,2,0.3898594874481205,19,Female,2019-06-04,4,4,10,10,114,3
17,immediate,16,2,2,0.4706937016835582,19,Female,2019-06-04,4,4,11,11,115,3
17,immediate,38,2,2,0.5859339661801641,19,Female,2019-06-04,4,4,12,12,116,3
17,immediate,58,1,1,0.559269447277984,19,Female,2019-06-04,4,4,13,13,117,3
17,immediate,22,2,2,0.43968892888915434,19,Female,2019-06-04,4,4,14,14,118,3
17,immediate,18,2,2,0.6827793207521609,19,Female,2019-06-04,4,4,15,15,119,3
17,immediate,17,2,2,0.8446712855929945,19,Female,2019-06-04,0,5,0,0,120,5
17,immediate,53,2,2,0.5361997518521093,19,Female,2019-06-04,0,5,1,1,121,5
17,immediate,59,1,2,0.6887724452317343,19,Female,2019-06-04,0,5,2,2,122,5
17,immediate,30,1,1,0.5684835979027412,19,Female,2019-06-04,0,5,3,3,123,5
17,immediate,13,2,2,0.7658553914461663,19,Female,2019-06-04,0,5,4,4,124,5
17,immediate,49,2,2,0.42852726015189546,19,Female,2019-06-04,0,5,5,5,125,5
17,immediate,47,1,1,0.7184662993422535,19,Female,2019-06-04,0,5,6,6,126,5
17,immediate,46,1,1,0.7108447294122016,19,Female,2019-06-04,0,5,7,7,127,5
17,immediate,10,1,1,0.4476778033949813,19,Female,2019-06-04,0,5,8,8,128,5
17,immediate,16,2,2,0.48218433680995076,19,Female,2019-06-04,0,5,9,9,129,5
17,immediate,43,1,1,0.5647295472717815,19,Female,2019-06-04,0,5,10,10,130,5
17,immediate,26,1,1,0.4585751241429534,19,Female,2019-06-04,0,5,11,11,131,5
17,immediate,54,1,1,0.5570677840805729,19,Female,2019-06-04,0,5,12,12,132,5
17,immediate,44,2,2,0.7540620701456646,19,Female,2019-06-04,0,5,13,13,133,5
17,immediate,32,2,2,0.5556783339452522,19,Female,2019-06-04,0,5,14,14,134,5
17,immediate,10,2,2,0.8709369636708288,19,Female,2019-06-04,1,6,0,0,135,6
17,immediate,29,1,2,0.651634489899152,19,Female,2019-06-04,1,6,1,1,136,6
17,immediate,43,1,2,0.610753614379064,19,Female,2019-06-04,1,6,2,2,137,6
17,immediate,51,1,2,0.5687903034067858,19,Female,2019-06-04,1,6,3,3,138,6
17,immediate,62,2,2,0.6143348339846852,19,Female,2019-06-04,1,6,4,4,139,6
17,immediate,5,1,1,0.4927904110008967,19,Female,2019-06-04,1,6,5,5,140,6
17,immediate,40,2,1,0.5285924041545513,19,Female,2019-06-04,1,6,6,6,141,6
17,immediate,22,2,1,0.6603697223545169,19,Female,2019-06-04,1,6,7,7,142,6
17,immediate,53,1,1,0.42795620665856404,19,Female,2019-06-04,1,6,8,8,143,6
17,immediate,32,2,2,0.302258892217651,19,Female,2019-06-04,1,6,9,9,144,6
17,immediate,17,1,1,0.44479687407692836,19,Female,2019-06-04,1,6,10,10,145,6
17,immediate,8,2,2,0.6390301922510844,19,Female,2019-06-04,1,6,11,11,146,6
17,immediate,23,1,1,0.5019646775435831,19,Female,2019-06-04,1,6,12,12,147,6
17,immediate,47,1,1,0.4506153124566481,19,Female,2019-06-04,1,6,13,13,148,6
17,immediate,4,2,2,0.452671661556451,19,Female,2019-06-04,1,6,14,14,149,6
17,immediate,42,2,2,0.5994234431218501,19,Female,2019-06-04,1,6,15,15,150,6
17,immediate,26,2,2,0.42955528011225397,19,Female,2019-06-04,1,6,16,16,151,6
17,immediate,19,1,1,0.38327335777285043,19,Female,2019-06-04,1,6,17,17,152,6
17,immediate,49,1,1,0.38450945515614876,19,Female,2019-06-04,1,6,18,18,153,6
17,immediate,45,1,1,0.4810858240525704,19,Female,2019-06-04,1,6,19,19,154,6
17,immediate,14,1,2,0.9570275289825076,19,Female,2019-06-04,2,7,0,0,155,4
17,immediate,47,1,1,0.47558800422848435,19,Female,2019-06-04,2,7,1,1,156,4
17,immediate,51,2,1,0.36676165674180083,19,Female,2019-06-04,2,7,2,2,157,4
17,immediate,55,1,1,0.383193280429623,19,Female,2019-06-04,2,7,3,3,158,4
17,immediate,57,2,2,0.31383857087530487,19,Female,2019-06-04,2,7,4,4,159,4
17,immediate,53,1,1,0.616599260507428,19,Female,2019-06-04,2,7,5,5,160,4
17,immediate,4,1,1,0.44722423789608,19,Female,2019-06-04,2,7,6,6,161,4
17,immediate,12,1,1,0.46540179503062973,19,Female,2019-06-04,2,7,7,7,162,4
17,immediate,27,2,2,0.37212096440453024,19,Female,2019-06-04,2,7,8,8,163,4
17,immediate,11,2,2,0.4212059029687225,19,Female,2019-06-04,2,7,9,9,164,4
17,immediate,54,1,1,0.4067663191599422,19,Female,2019-06-04,2,7,10,10,165,4
17,immediate,39,1,1,0.4079532570904121,19,Female,2019-06-04,2,7,11,11,166,4
17,immediate,10,2,2,0.45756410902504285,19,Female,2019-06-04,2,7,12,12,167,4
17,immediate,20,1,1,0.3962857716160215,19,Female,2019-06-04,2,7,13,13,168,4
17,immediate,2,2,2,0.31712947146115766,19,Female,2019-06-04,2,7,14,14,169,4
17,immediate,16,2,2,0.342716192597436,19,Female,2019-06-04,3,8,0,0,170,1
17,immediate,5,2,2,0.5699194248772983,19,Female,2019-06-04,3,8,1,1,171,1
17,immediate,48,1,2,0.5751003362947813,19,Female,2019-06-04,3,8,2,2,172,1
17,immediate,54,1,1,0.6122889969701646,19,Female,2019-06-04,3,8,3,3,173,1
17,immediate,11,2,2,0.538851579580296,19,Female,2019-06-04,3,8,4,4,174,1
17,immediate,23,2,2,0.4473568756602617,19,Female,2019-06-04,3,8,5,5,175,1
17,immediate,1,2,2,0.4177106351053226,19,Female,2019-06-04,3,8,6,6,176,1
17,immediate,57,1,1,0.4352948778632708,19,Female,2019-06-04,3,8,7,7,177,1
17,immediate,14,2,2,0.5811014994251309,19,Female,2019-06-04,3,8,8,8,178,1
17,immediate,32,1,1,0.612616108284783,19,Female,2019-06-04,3,8,9,9,179,1
17,immediate,10,2,2,0.5314043865673739,19,Female,2019-06-04,3,8,10,10,180,1
17,immediate,31,2,2,0.43967099651126773,19,Female,2019-06-04,3,8,11,11,181,1
17,immediate,60,1,1,0.4417591910387273,19,Female,2019-06-04,3,8,12,12,182,1
17,immediate,17,2,2,0.4121543804631074,19,Female,2019-06-04,3,8,13,13,183,1
17,immediate,37,1,1,0.5896642100342433,19,Female,2019-06-04,3,8,14,14,184,1
17,immediate,45,1,1,0.9220779421539191,19,Female,2019-06-04,4,9,0,0,185,3
17,immediate,10,1,1,0.5837088053849584,19,Female,2019-06-04,4,9,1,1,186,3
17,immediate,57,1,2,0.6052131278611341,19,Female,2019-06-04,4,9,2,2,187,3
17,immediate,36,2,2,0.4192311771093955,19,Female,2019-06-04,4,9,3,3,188,3
17,immediate,29,1,1,0.4772235607943003,19,Female,2019-06-04,4,9,4,4,189,3
17,immediate,0,2,2,0.6403058645373676,19,Female,2019-06-04,4,9,5,5,190,3
17,immediate,35,2,2,0.679146468264662,19,Female,2019-06-04,4,9,6,6,191,3
17,immediate,53,2,2,0.4700023775858426,19,Female,2019-06-04,4,9,7,7,192,3
17,immediate,37,2,2,0.34466989428801753,19,Female,2019-06-04,4,9,8,8,193,3
17,immediate,5,2,2,0.3925379045649606,19,Female,2019-06-04,4,9,9,9,194,3
17,immediate,58,1,1,0.5869270489201881,19,Female,2019-06-04,4,9,10,10,195,3
17,immediate,1,2,2,0.5924817576706118,19,Female,2019-06-04,4,9,11,11,196,3
17,immediate,42,1,1,0.39003541026431776,19,Female,2019-06-04,4,9,12,12,197,3
17,immediate,4,2,2,0.38846570880923537,19,Female,2019-06-04,4,9,13,13,198,3
17,immediate,19,2,2,0.6773306603772653,19,Female,2019-06-04,4,9,14,14,199,3
17,immediate,20,2,2,0.39607274732952646,19,Female,2019-06-04,0,10,0,0,200,5
17,immediate,13,2,2,0.4930362082541251,19,Female,2019-06-04,0,10,1,1,201,5
17,immediate,23,1,2,0.4164482575142756,19,Female,2019-06-04,0,10,2,2,202,5
17,immediate,59,1,1,0.49033954958213144,19,Female,2019-06-04,0,10,3,3,203,5
17,immediate,11,1,1,0.47761158035973494,19,Female,2019-06-04,0,10,4,4,204,5
17,immediate,31,1,1,0.7846132774411672,19,Female,2019-06-04,0,10,5,5,205,5
17,immediate,46,1,1,0.5554353193019779,19,Female,2019-06-04,0,10,6,6,206,5
17,immediate,2,1,1,0.7767536397332151,19,Female,2019-06-04,0,10,7,7,207,5
17,immediate,1,2,2,0.3549451470189524,19,Female,2019-06-04,0,10,8,8,208,5
17,immediate,8,2,2,0.514960704904297,19,Female,2019-06-04,0,10,9,9,209,5
17,immediate,16,2,2,0.42271345945664507,19,Female,2019-06-04,0,10,10,10,210,5
17,immediate,39,1,1,0.6165300044231117,19,Female,2019-06-04,0,10,11,11,211,5
17,immediate,26,1,1,0.44669956124380406,19,Female,2019-06-04,0,10,12,12,212,5
17,immediate,19,1,1,0.7691234127905773,19,Female,2019-06-04,0,10,13,13,213,5
17,immediate,41,2,2,0.43895339220398455,19,Female,2019-06-04,0,10,14,14,214,5
17,immediate,59,1,1,0.6501603247361345,19,Female,2019-06-04,1,11,0,0,215,6
17,immediate,5,1,1,0.5129646456971386,19,Female,2019-06-04,1,11,1,1,216,6
17,immediate,38,2,2,0.6448031813270063,19,Female,2019-06-04,1,11,2,2,217,6
17,immediate,53,1,1,0.37990578081189597,19,Female,2019-06-04,1,11,3,3,218,6
17,immediate,23,1,1,0.4711831319382327,19,Female,2019-06-04,1,11,4,4,219,6
17,immediate,30,2,2,0.39409802147201844,19,Female,2019-06-04,1,11,5,5,220,6
17,immediate,25,1,1,0.3794058384719392,19,Female,2019-06-04,1,11,6,6,221,6
17,immediate,17,1,1,0.3962134237463033,19,Female,2019-06-04,1,11,7,7,222,6
17,immediate,40,2,2,0.6532437662572192,19,Female,2019-06-04,1,11,8,8,223,6
17,immediate,41,1,1,0.5251942184786458,19,Female,2019-06-04,1,11,9,9,224,6
17,immediate,10,2,2,0.40147935936875,19,Female,2019-06-04,1,11,10,10,225,6
17,immediate,39,1,1,0.4027531765823369,19,Female,2019-06-04,1,11,11,11,226,6
17,immediate,10,2,2,0.47128454262929154,19,Female,2019-06-04,2,12,0,0,227,4
17,immediate,6,1,2,0.33159348040499026,19,Female,2019-06-04,2,12,1,1,228,4
17,immediate,23,1,2,0.646262815080263,19,Female,2019-06-04,2,12,2,2,229,4
17,immediate,45,1,1,0.5412613202006469,19,Female,2019-06-04,2,12,3,3,230,4
17,immediate,63,1,1,0.40183862529011094,19,Female,2019-06-04,2,12,4,4,231,4
17,immediate,19,2,2,0.3390273787226761,19,Female,2019-06-04,2,12,5,5,232,4
17,immediate,30,1,1,0.4988209461316728,19,Female,2019-06-04,2,12,6,6,233,4
17,immediate,33,2,2,0.5023598082225362,19,Female,2019-06-04,2,12,7,7,234,4
17,immediate,60,1,1,0.6019296475697047,19,Female,2019-06-04,2,12,8,8,235,4
17,immediate,3,2,2,0.4159288369046408,19,Female,2019-06-04,2,12,9,9,236,4
17,immediate,1,2,2,0.40752689934197406,19,Female,2019-06-04,2,12,10,10,237,4
17,immediate,34,2,2,0.3761755369578168,19,Female,2019-06-04,2,12,11,11,238,4
17,immediate,26,2,2,0.40902425292370026,19,Female,2019-06-04,2,12,12,12,239,4
17,immediate,47,1,1,0.39147556574425835,19,Female,2019-06-04,2,12,13,13,240,4
17,immediate,2,2,2,0.32845036735125177,19,Female,2019-06-04,2,12,14,14,241,4
17,immediate,11,2,2,0.5707709036651067,19,Female,2019-06-04,3,13,0,0,242,1
17,immediate,48,1,2,0.5119724904961913,19,Female,2019-06-04,3,13,1,1,243,1
17,immediate,4,2,2,0.43556293599976925,19,Female,2019-06-04,3,13,2,2,244,1
17,immediate,60,1,1,0.6298964281486406,19,Female,2019-06-04,3,13,3,3,245,1
17,immediate,51,1,1,0.5801263490629935,19,Female,2019-06-04,3,13,4,4,246,1
17,immediate,41,1,1,0.4674779315810156,19,Female,2019-06-04,3,13,5,5,247,1
17,immediate,2,2,2,0.4864933636290516,19,Female,2019-06-04,3,13,6,6,248,1
17,immediate,62,1,1,0.4254719539148937,19,Female,2019-06-04,3,13,7,7,249,1
17,immediate,24,2,2,0.5554702565223124,19,Female,2019-06-04,3,13,8,8,250,1
17,immediate,35,1,1,0.7847805432465975,19,Female,2019-06-04,3,13,9,9,251,1
17,immediate,8,2,2,0.6668507311933354,19,Female,2019-06-04,3,13,10,10,252,1
17,immediate,53,1,1,0.6263989960352774,19,Female,2019-06-04,3,13,11,11,253,1
17,immediate,26,2,2,0.6007287965858268,19,Female,2019-06-04,3,13,12,12,254,1
17,immediate,0,2,2,0.6388004723030463,19,Female,2019-06-04,3,13,13,13,255,1
17,immediate,32,2,1,0.7783227228264877,19,Female,2019-06-04,4,14,0,0,256,3
17,immediate,55,2,1,0.7241347859380767,19,Female,2019-06-04,4,14,1,1,257,3
17,immediate,2,2,2,0.7172008299585286,19,Female,2019-06-04,4,14,2,2,258,3
17,immediate,22,2,2,0.3418310133056366,19,Female,2019-06-04,4,14,3,3,259,3
17,immediate,60,1,1,0.5599490225758927,19,Female,2019-06-04,4,14,4,4,260,3
17,immediate,57,1,1,0.3570503463888599,19,Female,2019-06-04,4,14,5,5,261,3
17,immediate,35,2,1,0.5170346771992627,19,Female,2019-06-04,4,14,6,6,262,3
17,immediate,11,1,1,0.39338381813104206,19,Female,2019-06-04,4,14,7,7,263,3
17,immediate,24,1,1,0.4419218191596883,19,Female,2019-06-04,4,14,8,8,264,3
17,immediate,10,1,1,0.4281627381878934,19,Female,2019-06-04,4,14,9,9,265,3
17,immediate,59,1,1,0.36604126982274465,19,Female,2019-06-04,4,14,10,10,266,3
17,immediate,46,1,1,0.5264154752712784,19,Female,2019-06-04,4,14,11,11,267,3
17,immediate,34,2,2,0.5623460868609982,19,Female,2019-06-04,4,14,12,12,268,3
17,immediate,37,2,2,0.5193034322273888,19,Female,2019-06-04,4,14,13,13,269,3
17,immediate,52,2,2,0.5392977247829549,19,Female,2019-06-04,4,14,14,14,270,3
17,immediate,61,1,1,0.6079162792902935,19,Female,2019-06-04,4,14,15,15,271,3
17,immediate,27,1,1,0.6459452883136692,19,Female,2019-06-04,4,14,16,16,272,3
17,immediate,36,2,2,0.39197829069235013,19,Female,2019-06-04,4,14,17,17,273,3
17,immediate,43,1,1,0.4087237309977354,19,Female,2019-06-04,4,14,18,18,274,3
17,immediate,8,2,1,0.6034109238480596,19,Female,2019-06-04,0,15,0,0,275,5
17,immediate,54,1,1,0.561732366675642,19,Female,2019-06-04,0,15,1,1,276,5
17,immediate,0,2,2,0.502402474914561,19,Female,2019-06-04,0,15,2,2,277,5
17,immediate,31,1,1,0.6501318802747846,19,Female,2019-06-04,0,15,3,3,278,5
17,immediate,52,2,1,0.5655238279578043,19,Female,2019-06-04,0,15,4,4,279,5
17,immediate,53,2,2,0.3784257412480656,19,Female,2019-06-04,0,15,5,5,280,5
17,immediate,2,1,1,0.363339045929024,19,Female,2019-06-04,0,15,6,6,281,5
17,immediate,24,2,2,0.503257973028667,19,Female,2019-06-04,0,15,7,7,282,5
17,immediate,49,2,2,0.36286012775781273,19,Female,2019-06-04,0,15,8,8,283,5
17,immediate,59,1,1,0.4277190664142836,19,Female,2019-06-04,0,15,9,9,284,5
17,immediate,20,2,2,0.4933964017127437,19,Female,2019-06-04,0,15,10,10,285,5
17,immediate,23,1,1,0.40088820924393076,19,Female,2019-06-04,0,15,11,11,286,5
17,immediate,40,2,2,0.4659679016604059,19,Female,2019-06-04,0,15,12,12,287,5
17,immediate,22,1,1,0.3566085296897654,19,Female,2019-06-04,0,15,13,13,288,5
17,immediate,28,2,2,0.4459903047682019,19,Female,2019-06-04,0,15,14,14,289,5
17,immediate,37,2,2,0.42110201884679554,19,Female,2019-06-04,0,15,15,15,290,5
17,immediate,32,2,2,0.4302895800828992,19,Female,2019-06-04,0,15,16,16,291,5
17,immediate,53,1,2,0.6899637116675876,19,Female,2019-06-04,1,16,0,0,292,6
17,immediate,28,2,1,0.4740569501409482,19,Female,2019-06-04,1,16,1,1,293,6
17,immediate,52,2,1,0.4129999848501029,19,Female,2019-06-04,1,16,2,2,294,6
17,immediate,44,2,2,0.6704950233015552,19,Female,2019-06-04,1,16,3,3,295,6
17,immediate,11,1,1,0.5340741466734471,19,Female,2019-06-04,1,16,4,4,296,6
17,immediate,36,2,2,0.45957191703018907,19,Female,2019-06-04,1,16,5,5,297,6
17,immediate,16,2,2,0.44295231254909595,19,Female,2019-06-04,1,16,6,6,298,6
17,immediate,9,1,1,0.39756669994494587,19,Female,2019-06-04,1,16,7,7,299,6
17,immediate,54,2,2,0.8786741665244335,19,Female,2019-06-04,1,16,8,8,300,6
17,immediate,48,2,2,0.315347364079571,19,Female,2019-06-04,1,16,9,9,301,6
17,immediate,12,2,2,0.5067569510374597,19,Female,2019-06-04,1,16,10,10,302,6
17,immediate,39,1,1,0.33454211991011107,19,Female,2019-06-04,1,16,11,11,303,6
17,immediate,42,2,2,0.41420918366566184,19,Female,2019-06-04,1,16,12,12,304,6
17,immediate,18,2,2,0.39975166747899493,19,Female,2019-06-04,1,16,13,13,305,6
17,immediate,45,1,1,0.6567699520128372,19,Female,2019-06-04,1,16,14,14,306,6
17,immediate,48,2,2,0.6043842191356816,19,Female,2019-06-04,2,17,0,0,307,4
17,immediate,35,2,2,0.41837660653254716,19,Female,2019-06-04,2,17,1,1,308,4
17,immediate,25,2,2,0.7558457234226807,19,Female,2019-06-04,2,17,2,2,309,4
17,immediate,45,1,2,0.461586217792501,19,Female,2019-06-04,2,17,3,3,310,4
17,immediate,19,2,2,0.3588497677919804,19,Female,2019-06-04,2,17,4,4,311,4
17,immediate,26,2,2,0.33827143622693256,19,Female,2019-06-04,2,17,5,5,312,4
17,immediate,0,2,2,0.4977177956916421,19,Female,2019-06-04,2,17,6,6,313,4
17,immediate,30,1,1,0.46916666692413855,19,Female,2019-06-04,2,17,7,7,314,4
17,immediate,61,1,1,0.5678909018843115,19,Female,2019-06-04,2,17,8,8,315,4
17,immediate,3,2,2,0.3170793844747095,19,Female,2019-06-04,2,17,9,9,316,4
17,immediate,14,1,1,0.3641314715405315,19,Female,2019-06-04,2,17,10,10,317,4
17,immediate,52,1,1,0.3801741481274803,19,Female,2019-06-04,2,17,11,11,318,4
17,immediate,1,2,2,0.3009671426261775,19,Female,2019-06-04,2,17,12,12,319,4
17,immediate,42,2,2,0.32130709723423934,19,Female,2019-06-04,2,17,13,13,320,4
17,immediate,17,2,2,0.35282016019846196,19,Female,2019-06-04,2,17,14,14,321,4
17,immediate,46,1,1,0.4009525184646918,19,Female,2019-06-04,2,17,15,15,322,4
17,immediate,4,2,2,0.6827313980174949,19,Female,2019-06-04,3,18,0,0,323,1
17,immediate,22,2,2,0.3544563351224497,19,Female,2019-06-04,3,18,1,1,324,1
17,immediate,12,2,2,0.30662789975031046,19,Female,2019-06-04,3,18,2,2,325,1
17,immediate,54,1,2,0.353566208967095,19,Female,2019-06-04,3,18,3,3,326,1
17,immediate,16,2,2,0.2896465559169883,19,Female,2019-06-04,3,18,4,4,327,1
17,immediate,9,2,2,0.3841266916333552,19,Female,2019-06-04,3,18,5,5,328,1
17,immediate,37,1,1,0.43258059599247645,19,Female,2019-06-04,3,18,6,6,329,1
17,immediate,17,2,2,0.30653143592280685,19,Female,2019-06-04,3,18,7,7,330,1
17,immediate,29,2,2,0.3057405562067288,19,Female,2019-06-04,3,18,8,8,331,1
17,immediate,8,2,2,0.33666277822521806,19,Female,2019-06-04,3,18,9,9,332,1
17,immediate,63,1,1,0.43244981330281007,19,Female,2019-06-04,3,18,10,10,333,1
17,immediate,14,2,2,0.5463398933879944,19,Female,2019-06-04,3,18,11,11,334,1
17,immediate,45,1,1,0.3586620961777953,19,Female,2019-06-04,3,18,12,12,335,1
17,immediate,43,1,1,0.4035935249285103,19,Female,2019-06-04,3,18,13,13,336,1
17,immediate,52,1,1,0.420671641768422,19,Female,2019-06-04,3,18,14,14,337,1
17,immediate,55,1,1,0.48611152764351573,19,Female,2019-06-04,3,18,15,15,338,1
17,immediate,30,1,2,0.4719842145605071,19,Female,2019-06-04,4,19,0,0,339,3
17,immediate,17,2,1,0.794773515610359,19,Female,2019-06-04,4,19,1,1,340,3
17,immediate,25,1,2,0.5652387649788579,19,Female,2019-06-04,4,19,2,2,341,3
17,immediate,62,1,1,0.5069285453464545,19,Female,2019-06-04,4,19,3,3,342,3
17,immediate,40,1,1,0.4145180534233077,19,Female,2019-06-04,4,19,4,4,343,3
17,immediate,38,2,2,0.6080640668224078,19,Female,2019-06-04,4,19,5,5,344,3
17,immediate,16,2,2,0.47001258049022,19,Female,2019-06-04,4,19,6,6,345,3
17,immediate,7,2,2,0.37628560465964256,19,Female,2019-06-04,4,19,7,7,346,3
17,immediate,23,2,2,0.4411089877394261,19,Female,2019-06-04,4,19,8,8,347,3
17,immediate,41,1,1,0.41148346217414655,19,Female,2019-06-04,4,19,9,9,348,3
17,immediate,44,1,1,0.45279131380266335,19,Female,2019-06-04,4,19,10,10,349,3
17,immediate,13,1,1,0.42293235814031505,19,Female,2019-06-04,4,19,11,11,350,3
17,immediate,28,1,1,0.4330326155959483,19,Female,2019-06-04,4,19,12,12,351,3
17,immediate,45,1,1,0.4030821429696516,19,Female,2019-06-04,4,19,13,13,352,3
17,immediate,9,1,1,0.5323551117944589,19,Female,2019-06-04,4,19,14,14,353,3
17,immediate,60,2,1,0.6621706896512478,19,Female,2019-06-04,0,20,0,0,354,5
17,immediate,56,2,2,0.5097448562682985,19,Female,2019-06-04,0,20,1,1,355,5
17,immediate,58,1,2,0.46561914782250824,19,Female,2019-06-04,0,20,2,2,356,5
17,immediate,0,2,2,0.37222021084198786,19,Female,2019-06-04,0,20,3,3,357,5
17,immediate,27,1,1,0.3868075821810635,19,Female,2019-06-04,0,20,4,4,358,5
17,immediate,12,2,2,0.4995444248379499,19,Female,2019-06-04,0,20,5,5,359,5
17,immediate,37,2,2,0.471014011061925,19,Female,2019-06-04,0,20,6,6,360,5
17,immediate,46,1,1,0.34599101587809855,19,Female,2019-06-04,0,20,7,7,361,5
17,immediate,11,1,1,0.44203590618599264,19,Female,2019-06-04,0,20,8,8,362,5
17,immediate,44,2,2,0.38038346226676367,19,Female,2019-06-04,0,20,9,9,363,5
17,immediate,40,2,2,0.3172494328882749,19,Female,2019-06-04,0,20,10,10,364,5
17,immediate,50,1,1,0.5084373385507206,19,Female,2019-06-04,0,20,11,11,365,5
17,immediate,55,1,1,0.43249000656396674,19,Female,2019-06-04,0,20,12,12,366,5
17,immediate,30,1,1,0.4225304255269293,19,Female,2019-06-04,0,20,13,13,367,5
17,immediate,36,2,2,0.42487616610742407,19,Female,2019-06-04,0,20,14,14,368,5
17,immediate,45,1,2,0.5186337506529526,19,Female,2019-06-04,1,21,0,0,369,6
17,immediate,17,1,2,0.5068790767181781,19,Female,2019-06-04,1,21,1,1,370,6
17,immediate,43,1,1,0.7986187740261812,19,Female,2019-06-04,1,21,2,2,371,6
17,immediate,29,1,1,0.3931949098023324,19,Female,2019-06-04,1,21,3,3,372,6
17,immediate,60,2,2,0.49032378145602706,19,Female,2019-06-04,1,21,4,4,373,6
17,immediate,3,1,1,0.3817469413697836,19,Female,2019-06-04,1,21,5,5,374,6
17,immediate,7,1,1,0.3344237043784233,19,Female,2019-06-04,1,21,6,6,375,6
17,immediate,56,2,2,0.3501667865766649,19,Female,2019-06-04,1,21,7,7,376,6
17,immediate,37,1,1,0.3661967868265492,19,Female,2019-06-04,1,21,8,8,377,6
17,immediate,41,1,2,0.414536913336633,19,Female,2019-06-04,1,21,9,9,378,6
17,immediate,20,2,2,0.3521718119718571,19,Female,2019-06-04,1,21,10,10,379,6
17,immediate,27,1,1,0.3521962371069094,19,Female,2019-06-04,1,21,11,11,380,6
17,immediate,0,2,2,0.38999676289677154,19,Female,2019-06-04,1,21,12,12,381,6
17,immediate,10,2,2,0.3428766564647958,19,Female,2019-06-04,1,21,13,13,382,6
17,immediate,44,2,2,0.3421176221781934,19,Female,2019-06-04,1,21,14,14,383,6
17,immediate,30,2,2,0.3738681345657824,19,Female,2019-06-04,1,21,15,15,384,6
17,immediate,40,2,2,0.3263238346353319,19,Female,2019-06-04,1,21,16,16,385,6
17,immediate,50,2,2,0.485485131122914,19,Female,2019-06-04,1,21,17,17,386,6
17,immediate,63,1,1,0.392618291087274,19,Female,2019-06-04,1,21,18,18,387,6
17,immediate,19,1,1,0.6818864119886712,19,Female,2019-06-04,1,21,19,19,388,6
17,immediate,42,2,2,0.33779777409654344,19,Female,2019-06-04,1,21,20,20,389,6
17,immediate,53,1,1,0.4333145867840358,19,Female,2019-06-04,1,21,21,21,390,6
17,immediate,13,1,2,0.7992992768613476,19,Female,2019-06-04,2,22,0,0,391,4
17,immediate,8,2,1,0.5382771251188387,19,Female,2019-06-04,2,22,1,1,392,4
17,immediate,62,1,1,0.6195225473384198,19,Female,2019-06-04,2,22,2,2,393,4
17,immediate,10,2,2,0.3463586296329595,19,Female,2019-06-04,2,22,3,3,394,4
17,immediate,23,1,1,0.3630505819837708,19,Female,2019-06-04,2,22,4,4,395,4
17,immediate,38,1,1,0.42706979065224004,19,Female,2019-06-04,2,22,5,5,396,4
17,immediate,7,1,1,0.46079502889733703,19,Female,2019-06-04,2,22,6,6,397,4
17,immediate,60,1,1,0.37478917861335503,19,Female,2019-06-04,2,22,7,7,398,4
17,immediate,54,1,1,0.37133101222389087,19,Female,2019-06-04,2,22,8,8,399,4
17,immediate,2,2,2,0.37164884816957056,19,Female,2019-06-04,2,22,9,9,400,4
17,immediate,29,1,1,0.4359914580036275,19,Female,2019-06-04,2,22,10,10,401,4
17,immediate,22,1,1,0.4859550831024535,19,Female,2019-06-04,2,22,11,11,402,4
17,immediate,26,2,2,1.208954563991938,19,Female,2019-06-04,2,22,12,12,403,4
17,immediate,57,2,2,0.3653749892164342,19,Female,2019-06-04,2,22,13,13,404,4
17,immediate,35,1,2,0.39680581058382813,19,Female,2019-06-04,3,23,0,0,405,1
17,immediate,32,1,2,0.4621090393702616,19,Female,2019-06-04,3,23,1,1,406,1
17,immediate,4,2,1,0.36868444054016436,19,Female,2019-06-04,3,23,2,2,407,1
17,immediate,33,1,1,0.4171949246428994,19,Female,2019-06-04,3,23,3,3,408,1
17,immediate,2,2,1,0.4833360283428192,19,Female,2019-06-04,3,23,4,4,409,1
17,immediate,23,2,2,0.3897351975174388,19,Female,2019-06-04,3,23,5,5,410,1
17,immediate,10,2,2,1.254550727451715,19,Female,2019-06-04,3,23,6,6,411,1
17,immediate,8,2,2,0.32330934001583955,19,Female,2019-06-04,3,23,7,7,412,1
17,immediate,60,1,1,0.7706489016563864,19,Female,2019-06-04,3,23,8,8,413,1
17,immediate,37,1,1,0.41308624577322917,19,Female,2019-06-04,3,23,9,9,414,1
17,immediate,15,2,2,0.6851337183434225,19,Female,2019-06-04,3,23,10,10,415,1
17,immediate,38,1,1,0.3728027039542212,19,Female,2019-06-04,3,23,11,11,416,1
17,immediate,36,1,2,0.7412073375580803,19,Female,2019-06-04,3,23,12,12,417,1
17,immediate,31,2,1,0.3345801489194855,19,Female,2019-06-04,3,23,13,13,418,1
17,immediate,16,2,2,0.34972682495208574,19,Female,2019-06-04,3,23,14,14,419,1
17,immediate,28,2,2,0.34986904726065404,19,Female,2019-06-04,3,23,15,15,420,1
17,immediate,18,2,2,0.4139290675502707,19,Female,2019-06-04,3,23,16,16,421,1
17,immediate,17,2,2,0.479513339987534,19,Female,2019-06-04,3,23,17,17,422,1
17,immediate,49,1,1,0.45056800808197295,19,Female,2019-06-04,3,23,18,18,423,1
17,immediate,21,2,2,0.6447206305529107,19,Female,2019-06-04,3,23,19,19,424,1
