sub_num,condition,stim_id,cat,resp,rt,age,gender,date,prob_num,num_problems_solved,current_trial_prob,current_trial_stim,current_trial_exp,relevant_dim
9,immediate,60,1,1,1.8627893408838645,20,Female,2019-06-04,0,0,0,0,0,4
9,immediate,55,1,1,1.851881830720231,20,Female,2019-06-04,0,0,1,1,1,4
9,immediate,15,1,1,1.8171827217420287,20,Female,2019-06-04,0,0,2,2,2,4
9,immediate,59,2,2,0.7394045282917432,20,Female,2019-06-04,0,0,3,3,3,4
9,immediate,6,1,1,0.5889341285810588,20,Female,2019-06-04,0,0,4,4,4,4
9,immediate,22,1,1,0.5304576430016823,20,Female,2019-06-04,0,0,5,5,5,4
9,immediate,3,2,2,0.5185493218632473,20,Female,2019-06-04,0,0,6,6,6,4
9,immediate,26,2,2,0.7306167462847952,20,Female,2019-06-04,0,0,7,7,7,4
9,immediate,16,2,2,0.7078052434826532,20,Female,2019-06-04,0,0,8,8,8,4
9,immediate,58,2,2,0.5970713989127034,20,Female,2019-06-04,0,0,9,9,9,4
9,immediate,8,2,2,0.6350678971566595,20,Female,2019-06-04,0,0,10,10,10,4
9,immediate,45,1,1,0.6574762311256563,20,Female,2019-06-04,0,0,11,11,11,4
9,immediate,16,2,1,1.4591700349092207,20,Female,2019-06-04,1,1,0,0,12,5
9,immediate,8,2,2,0.6056832583217329,20,Female,2019-06-04,1,1,1,1,13,5
9,immediate,10,1,2,0.5956763852818767,20,Female,2019-06-04,1,1,2,2,14,5
9,immediate,63,1,2,0.8893564355666967,20,Female,2019-06-04,1,1,3,3,15,5
9,immediate,48,2,2,0.9341585721140291,20,Female,2019-06-04,1,1,4,4,16,5
9,immediate,51,1,1,0.5390218889142488,20,Female,2019-06-04,1,1,5,5,17,5
9,immediate,25,2,2,0.7516637670869386,20,Female,2019-06-04,1,1,6,6,18,5
9,immediate,60,2,2,0.8256106199123678,20,Female,2019-06-04,1,1,7,7,19,5
9,immediate,20,2,2,0.669379605407812,20,Female,2019-06-04,1,1,8,8,20,5
9,immediate,4,2,2,0.5169740571363945,20,Female,2019-06-04,1,1,9,9,21,5
9,immediate,45,2,2,0.7610266212004717,20,Female,2019-06-04,1,1,10,10,22,5
9,immediate,35,1,1,0.898448140090295,20,Female,2019-06-04,1,1,11,11,23,5
9,immediate,50,1,1,0.9436376773646771,20,Female,2019-06-04,1,1,12,12,24,5
9,immediate,11,1,1,0.7695302681167959,20,Female,2019-06-04,1,1,13,13,25,5
9,immediate,18,1,1,0.8596106761824558,20,Female,2019-06-04,1,1,14,14,26,5
9,immediate,57,2,2,0.7918022543444749,20,Female,2019-06-04,1,1,15,15,27,5
9,immediate,24,1,1,2.154508580786569,20,Female,2019-06-04,2,2,0,0,28,2
9,immediate,49,1,2,0.9655946106468036,20,Female,2019-06-04,2,2,1,1,29,2
9,immediate,11,2,1,1.1388156049833924,20,Female,2019-06-04,2,2,2,2,30,2
9,immediate,41,2,1,0.7890885941860688,20,Female,2019-06-04,2,2,3,3,31,2
9,immediate,8,2,2,1.0559919267298028,20,Female,2019-06-04,2,2,4,4,32,2
9,immediate,36,2,1,1.1526074418661665,20,Female,2019-06-04,2,2,5,5,33,2
9,immediate,6,2,1,1.619843945217326,20,Female,2019-06-04,2,2,6,6,34,2
9,immediate,45,2,2,0.6901502205828365,20,Female,2019-06-04,2,2,7,7,35,2
9,immediate,16,1,2,0.8746345895979175,20,Female,2019-06-04,2,2,8,8,36,2
9,immediate,4,2,2,2.006927145474947,20,Female,2019-06-04,2,2,9,9,37,2
9,immediate,38,2,2,1.2780489101924104,20,Female,2019-06-04,2,2,10,10,38,2
9,immediate,31,1,2,1.4816538084460262,20,Female,2019-06-04,2,2,11,11,39,2
9,immediate,62,1,1,0.9006485638501545,20,Female,2019-06-04,2,2,12,12,40,2
9,immediate,27,1,1,0.7857364803176097,20,Female,2019-06-04,2,2,13,13,41,2
9,immediate,58,1,1,0.7806090631984262,20,Female,2019-06-04,2,2,14,14,42,2
9,immediate,43,2,1,0.7814769273963975,20,Female,2019-06-04,2,2,15,15,43,2
9,immediate,25,1,2,2.5201827121582028,20,Female,2019-06-04,2,2,16,16,44,2
9,immediate,2,2,2,0.9875128966104967,20,Female,2019-06-04,2,2,17,17,45,2
9,immediate,61,1,1,1.5469711786845437,20,Female,2019-06-04,2,2,18,18,46,2
9,immediate,56,1,1,0.9673491989333343,20,Female,2019-06-04,2,2,19,19,47,2
9,immediate,32,2,2,1.5580230752320858,20,Female,2019-06-04,2,2,20,20,48,2
9,immediate,34,2,2,0.9433025278121931,20,Female,2019-06-04,2,2,21,21,49,2
9,immediate,26,1,1,0.8252368230414504,20,Female,2019-06-04,2,2,22,22,50,2
9,immediate,42,2,1,1.9240722401873427,20,Female,2019-06-04,2,2,23,23,51,2
9,immediate,29,1,1,1.1457996393119174,20,Female,2019-06-04,2,2,24,24,52,2
9,immediate,60,1,1,0.9573475819306623,20,Female,2019-06-04,2,2,25,25,53,2
9,immediate,37,2,2,0.8755380093289205,20,Female,2019-06-04,2,2,26,26,54,2
9,immediate,23,1,2,1.1441081234497688,20,Female,2019-06-04,2,2,27,27,55,2
9,immediate,52,1,2,8.405552290286323,20,Female,2019-06-04,2,2,28,28,56,2
9,immediate,14,2,1,1.9113946828092594,20,Female,2019-06-04,2,2,29,29,57,2
9,immediate,19,1,2,1.03682996756379,20,Female,2019-06-04,2,2,30,30,58,2
9,immediate,13,2,2,0.8934054378942164,20,Female,2019-06-04,2,2,31,31,59,2
9,immediate,12,2,2,0.5225327783373359,20,Female,2019-06-04,2,2,32,32,60,2
9,immediate,5,2,2,0.8949102099104493,20,Female,2019-06-04,2,2,33,33,61,2
9,immediate,17,1,2,0.8277467345333207,20,Female,2019-06-04,2,2,34,34,62,2
9,immediate,63,1,2,2.6793416475575214,20,Female,2019-06-04,2,2,35,35,63,2
9,immediate,50,1,2,1.2586501202549698,20,Female,2019-06-04,2,2,36,36,64,2
9,immediate,40,2,2,0.5759096728670556,20,Female,2019-06-04,2,2,37,37,65,2
9,immediate,22,1,2,0.6750057275330619,20,Female,2019-06-04,2,2,38,38,66,2
9,immediate,57,1,2,1.690338819500539,20,Female,2019-06-04,2,2,39,39,67,2
9,immediate,35,2,2,2.553967580155586,20,Female,2019-06-04,2,2,40,40,68,2
9,immediate,46,2,2,0.8783366935886079,20,Female,2019-06-04,2,2,41,41,69,2
9,immediate,48,1,2,1.1795879082737883,20,Female,2019-06-04,2,2,42,42,70,2
9,immediate,1,2,2,2.047053883948138,20,Female,2019-06-04,2,2,43,43,71,2
9,immediate,53,1,1,0.6954319178012156,20,Female,2019-06-04,2,2,44,44,72,2
9,immediate,39,2,1,3.7595815206450425,20,Female,2019-06-04,2,2,45,45,73,2
9,immediate,7,2,1,1.8009205482230755,20,Female,2019-06-04,2,2,46,46,74,2
9,immediate,15,2,1,3.3880710257335522,20,Female,2019-06-04,2,2,47,47,75,2
9,immediate,30,1,1,1.8242205531396394,20,Female,2019-06-04,2,2,48,48,76,2
9,immediate,20,1,1,0.5321265888296693,20,Female,2019-06-04,2,2,49,49,77,2
9,immediate,0,2,1,0.4716419885498908,20,Female,2019-06-04,2,2,50,50,78,2
9,immediate,28,1,2,1.6231942040149079,20,Female,2019-06-04,2,2,51,51,79,2
9,immediate,3,2,1,0.9497454996744636,20,Female,2019-06-04,2,2,52,52,80,2
9,immediate,21,1,2,2.5727810950920684,20,Female,2019-06-04,2,2,53,53,81,2
9,immediate,33,2,1,1.3938325680646813,20,Female,2019-06-04,2,2,54,54,82,2
9,immediate,55,1,1,1.7394298809322208,20,Female,2019-06-04,2,2,55,55,83,2
9,immediate,10,2,1,0.8445725405535995,20,Female,2019-06-04,2,2,56,56,84,2
9,immediate,54,1,1,0.6958255020981596,20,Female,2019-06-04,2,2,57,57,85,2
9,immediate,47,2,2,0.6336639173478034,20,Female,2019-06-04,2,2,58,58,86,2
9,immediate,59,1,2,0.6408569563782294,20,Female,2019-06-04,2,2,59,59,87,2
9,immediate,44,2,1,1.0953454096415953,20,Female,2019-06-04,2,2,60,60,88,2
9,immediate,51,1,1,1.7216215054713757,20,Female,2019-06-04,2,2,61,61,89,2
9,immediate,18,1,2,1.674522790633091,20,Female,2019-06-04,2,2,62,62,90,2
9,immediate,9,2,1,1.2740425745050743,20,Female,2019-06-04,2,2,63,63,91,2
9,immediate,62,1,1,1.4243596216520018,20,Female,2019-06-04,2,2,64,0,92,2
9,immediate,54,1,1,1.260437481468216,20,Female,2019-06-04,2,2,65,1,93,2
9,immediate,31,1,2,1.9220780385212493,20,Female,2019-06-04,2,2,66,2,94,2
9,immediate,22,1,1,1.0794449750292188,20,Female,2019-06-04,2,2,67,3,95,2
9,immediate,8,2,1,1.4008669984978042,20,Female,2019-06-04,2,2,68,4,96,2
9,immediate,18,1,1,0.801844992095539,20,Female,2019-06-04,2,2,69,5,97,2
9,immediate,45,2,2,0.700666929055842,20,Female,2019-06-04,2,2,70,6,98,2
9,immediate,30,1,1,0.7819935647576131,20,Female,2019-06-04,2,2,71,7,99,2
9,immediate,19,1,2,2.712146728720654,20,Female,2019-06-04,2,2,72,8,100,2
9,immediate,12,2,2,0.7051098248593917,20,Female,2019-06-04,2,2,73,9,101,2
9,immediate,42,2,1,1.7210872449313683,20,Female,2019-06-04,2,2,74,10,102,2
9,immediate,63,1,1,2.025710979270116,20,Female,2019-06-04,2,2,75,11,103,2
9,immediate,32,2,2,1.2454976646195064,20,Female,2019-06-04,2,2,76,12,104,2
9,immediate,49,1,2,0.7868371559652587,20,Female,2019-06-04,2,2,77,13,105,2
9,immediate,29,1,1,2.429329048530235,20,Female,2019-06-04,2,2,78,14,106,2
9,immediate,5,2,1,1.101931221994164,20,Female,2019-06-04,2,2,79,15,107,2
9,immediate,26,1,1,0.6717664638345013,20,Female,2019-06-04,2,2,80,16,108,2
9,immediate,9,2,2,1.2554043638083385,20,Female,2019-06-04,2,2,81,17,109,2
9,immediate,24,1,2,0.6719343477898292,20,Female,2019-06-04,2,2,82,18,110,2
9,immediate,60,1,1,1.7576806909028164,20,Female,2019-06-04,2,2,83,19,111,2
9,immediate,17,1,2,2.0475371300253755,20,Female,2019-06-04,2,2,84,20,112,2
9,immediate,37,2,1,2.2317327262708204,20,Female,2019-06-04,2,2,85,21,113,2
9,immediate,58,1,1,0.8846253853516828,20,Female,2019-06-04,2,2,86,22,114,2
9,immediate,34,2,1,1.0094073758255036,20,Female,2019-06-04,2,2,87,23,115,2
9,immediate,57,1,1,1.4255137851887412,20,Female,2019-06-04,2,2,88,24,116,2
9,immediate,27,1,1,1.115403986610545,20,Female,2019-06-04,2,2,89,25,117,2
9,immediate,3,2,2,0.6216680986781284,20,Female,2019-06-04,2,2,90,26,118,2
9,immediate,48,1,2,1.3320404516844064,20,Female,2019-06-04,2,2,91,27,119,2
9,immediate,15,2,1,1.3237492104353805,20,Female,2019-06-04,2,2,92,28,120,2
9,immediate,2,2,1,0.9568346547112014,20,Female,2019-06-04,2,2,93,29,121,2
9,immediate,4,2,1,2.1074599528747058,20,Female,2019-06-04,2,2,94,30,122,2
9,immediate,0,2,2,0.5493329936498412,20,Female,2019-06-04,2,2,95,31,123,2
9,immediate,46,2,1,0.5542461500317586,20,Female,2019-06-04,2,2,96,32,124,2
9,immediate,47,2,1,1.6308129819126407,20,Female,2019-06-04,2,2,97,33,125,2
9,immediate,13,2,1,1.1294372919428497,20,Female,2019-06-04,2,2,98,34,126,2
9,immediate,43,2,1,2.444065425892404,20,Female,2019-06-04,2,2,99,35,127,2
9,immediate,6,2,1,0.5901652775783077,20,Female,2019-06-04,2,2,100,36,128,2
9,immediate,40,2,2,1.7318098663199635,20,Female,2019-06-04,2,2,101,37,129,2
9,immediate,36,2,2,0.6607414658219568,20,Female,2019-06-04,2,2,102,38,130,2
9,immediate,10,2,2,0.6629542567243334,20,Female,2019-06-04,2,2,103,39,131,2
9,immediate,1,2,2,0.8305318149368759,20,Female,2019-06-04,2,2,104,40,132,2
9,immediate,53,1,2,1.0180541724112118,20,Female,2019-06-04,2,2,105,41,133,2
9,immediate,61,1,2,1.7138098001560138,20,Female,2019-06-04,2,2,106,42,134,2
9,immediate,56,1,2,0.834101590507089,20,Female,2019-06-04,2,2,107,43,135,2
9,immediate,35,2,1,3.2778337219197056,20,Female,2019-06-04,2,2,108,44,136,2
9,immediate,38,2,2,1.0515233691066896,20,Female,2019-06-04,2,2,109,45,137,2
9,immediate,44,2,2,1.4683211017145368,20,Female,2019-06-04,2,2,110,46,138,2
9,immediate,33,2,1,1.1975688053680642,20,Female,2019-06-04,2,2,111,47,139,2
9,immediate,23,1,2,1.1376530936249765,20,Female,2019-06-04,2,2,112,48,140,2
9,immediate,55,1,1,0.7563487496972812,20,Female,2019-06-04,2,2,113,49,141,2
9,immediate,25,1,2,0.9579928375696909,20,Female,2019-06-04,2,2,114,50,142,2
9,immediate,41,2,1,1.2607160513443887,20,Female,2019-06-04,2,2,115,51,143,2
9,immediate,52,1,1,1.2984655159252725,20,Female,2019-06-04,2,2,116,52,144,2
9,immediate,11,2,2,0.8569047454893735,20,Female,2019-06-04,2,2,117,53,145,2
9,immediate,50,1,2,1.5773492082089433,20,Female,2019-06-04,2,2,118,54,146,2
9,immediate,16,1,1,1.4304751734262027,20,Female,2019-06-04,2,2,119,55,147,2
9,immediate,20,1,1,1.4095273989396446,20,Female,2019-06-04,2,2,120,56,148,2
9,immediate,21,1,1,1.881756208382285,20,Female,2019-06-04,2,2,121,57,149,2
9,immediate,59,1,1,1.4703613709843921,20,Female,2019-06-04,2,2,122,58,150,2
9,immediate,51,1,1,0.8493771752637258,20,Female,2019-06-04,2,2,123,59,151,2
9,immediate,14,2,2,2.3974178025628134,20,Female,2019-06-04,2,2,124,60,152,2
9,immediate,39,2,1,1.9883615917378847,20,Female,2019-06-04,2,2,125,61,153,2
9,immediate,7,2,1,0.81162616479196,20,Female,2019-06-04,2,2,126,62,154,2
9,immediate,28,1,1,0.8225905638091717,20,Female,2019-06-04,2,2,127,63,155,2
9,immediate,40,2,2,1.7204994965022706,20,Female,2019-06-04,2,2,128,0,156,2
9,immediate,32,2,2,0.7771648141206242,20,Female,2019-06-04,2,2,129,1,157,2
9,immediate,42,2,2,1.3340547499565218,20,Female,2019-06-04,2,2,130,2,158,2
9,immediate,57,1,1,2.7335932082132786,20,Female,2019-06-04,2,2,131,3,159,2
9,immediate,56,1,2,0.8544201866388903,20,Female,2019-06-04,2,2,132,4,160,2
9,immediate,60,1,2,1.0904811034706654,20,Female,2019-06-04,2,2,133,5,161,2
9,immediate,38,2,1,1.3640064222572619,20,Female,2019-06-04,2,2,134,6,162,2
9,immediate,10,2,2,0.9403381238489601,20,Female,2019-06-04,2,2,135,7,163,2
9,immediate,12,2,1,0.9386735065208995,20,Female,2019-06-04,2,2,136,8,164,2
9,immediate,6,2,2,2.5684096195345774,20,Female,2019-06-04,2,2,137,9,165,2
9,immediate,46,2,2,1.77348651687862,20,Female,2019-06-04,2,2,138,10,166,2
9,immediate,51,1,1,1.0395841301124165,20,Female,2019-06-04,2,2,139,11,167,2
9,immediate,59,1,1,1.9040526197159124,20,Female,2019-06-04,2,2,140,12,168,2
9,immediate,22,1,1,1.3467963072944258,20,Female,2019-06-04,2,2,141,13,169,2
9,immediate,63,1,1,1.4986558462414905,20,Female,2019-06-04,2,2,142,14,170,2
9,immediate,29,1,1,0.9184006688155932,20,Female,2019-06-04,2,2,143,15,171,2
9,immediate,25,1,1,0.5615820295533922,20,Female,2019-06-04,2,2,144,16,172,2
9,immediate,61,1,1,1.3665361211751588,20,Female,2019-06-04,2,2,145,17,173,2
9,immediate,30,1,1,1.1671397613818044,20,Female,2019-06-04,2,2,146,18,174,2
9,immediate,18,1,1,0.9142279950665397,20,Female,2019-06-04,2,2,147,19,175,2
9,immediate,20,1,1,0.7360165497093476,20,Female,2019-06-04,2,2,148,20,176,2
9,immediate,34,1,2,3.1172469999628447,20,Female,2019-06-04,3,3,0,0,177,1
9,immediate,8,2,1,1.1753645292437795,20,Female,2019-06-04,3,3,1,1,178,1
9,immediate,38,1,2,0.7545926155180496,20,Female,2019-06-04,3,3,2,2,179,1
9,immediate,17,2,2,0.47643271022570843,20,Female,2019-06-04,3,3,3,3,180,1
9,immediate,63,1,1,1.1194597908652213,20,Female,2019-06-04,3,3,4,4,181,1
9,immediate,27,2,1,0.9095995921315989,20,Female,2019-06-04,3,3,5,5,182,1
9,immediate,44,1,1,1.3070983994757626,20,Female,2019-06-04,3,3,6,6,183,1
9,immediate,37,1,1,0.9458872605146098,20,Female,2019-06-04,3,3,7,7,184,1
9,immediate,58,1,2,1.9977550545281701,20,Female,2019-06-04,3,3,8,8,185,1
9,immediate,60,1,1,0.709011039838515,20,Female,2019-06-04,3,3,9,9,186,1
9,immediate,14,2,1,1.1338257723200513,20,Female,2019-06-04,3,3,10,10,187,1
9,immediate,6,2,2,0.8163519589706993,20,Female,2019-06-04,3,3,11,11,188,1
9,immediate,25,2,1,1.4035754026199356,20,Female,2019-06-04,3,3,12,12,189,1
9,immediate,16,2,2,0.6767105380731664,20,Female,2019-06-04,3,3,13,13,190,1
9,immediate,7,2,1,2.1085210536684826,20,Female,2019-06-04,3,3,14,14,191,1
9,immediate,23,2,1,1.1904236890140965,20,Female,2019-06-04,3,3,15,15,192,1
9,immediate,2,2,2,1.8506015223329086,20,Female,2019-06-04,3,3,16,16,193,1
9,immediate,18,2,2,0.7309055190535219,20,Female,2019-06-04,3,3,17,17,194,1
9,immediate,56,1,2,1.2518924046271422,20,Female,2019-06-04,3,3,18,18,195,1
9,immediate,42,1,2,1.6255421059449873,20,Female,2019-06-04,3,3,19,19,196,1
9,immediate,11,2,2,0.9200065422182888,20,Female,2019-06-04,3,3,20,20,197,1
9,immediate,52,1,1,2.691837407945968,20,Female,2019-06-04,3,3,21,21,198,1
9,immediate,28,2,2,0.7476827840418991,20,Female,2019-06-04,3,3,22,22,199,1
9,immediate,43,1,2,0.6450642581248758,20,Female,2019-06-04,3,3,23,23,200,1
9,immediate,15,2,2,1.0205588278668074,20,Female,2019-06-04,3,3,24,24,201,1
9,immediate,9,2,2,1.3724624556753042,20,Female,2019-06-04,3,3,25,25,202,1
9,immediate,0,2,2,2.1807074438138443,20,Female,2019-06-04,3,3,26,26,203,1
9,immediate,24,2,2,1.0322689655531576,20,Female,2019-06-04,3,3,27,27,204,1
9,immediate,1,2,2,1.1286968093081668,20,Female,2019-06-04,3,3,28,28,205,1
9,immediate,55,1,1,0.7151414321833727,20,Female,2019-06-04,3,3,29,29,206,1
9,immediate,45,1,1,1.0118433936422662,20,Female,2019-06-04,3,3,30,30,207,1
9,immediate,54,1,1,1.2118281202219805,20,Female,2019-06-04,3,3,31,31,208,1
9,immediate,13,2,2,0.8484255236789977,20,Female,2019-06-04,3,3,32,32,209,1
9,immediate,10,2,2,0.9243736892767629,20,Female,2019-06-04,3,3,33,33,210,1
9,immediate,35,1,1,2.8261544649867574,20,Female,2019-06-04,3,3,34,34,211,1
9,immediate,61,1,1,1.0132405715230561,20,Female,2019-06-04,3,3,35,35,212,1
9,immediate,41,1,1,0.8877283013080159,20,Female,2019-06-04,4,4,0,0,213,6
9,immediate,50,2,2,1.1724072363858795,20,Female,2019-06-04,4,4,1,1,214,6
9,immediate,2,2,2,1.3358860145244762,20,Female,2019-06-04,4,4,2,2,215,6
9,immediate,55,1,2,0.6617864893305523,20,Female,2019-06-04,4,4,3,3,216,6
9,immediate,52,2,1,1.078889071991398,20,Female,2019-06-04,4,4,4,4,217,6
9,immediate,31,1,2,1.711588970611956,20,Female,2019-06-04,4,4,5,5,218,6
9,immediate,25,1,1,0.60807351771291,20,Female,2019-06-04,4,4,6,6,219,6
9,immediate,14,2,1,0.8061605063358002,20,Female,2019-06-04,4,4,7,7,220,6
9,immediate,28,2,1,0.7530034377559787,20,Female,2019-06-04,4,4,8,8,221,6
9,immediate,54,2,2,1.9148989125260414,20,Female,2019-06-04,4,4,9,9,222,6
9,immediate,34,2,2,1.3763148204425306,20,Female,2019-06-04,4,4,10,10,223,6
9,immediate,37,1,2,1.1841111905014259,20,Female,2019-06-04,4,4,11,11,224,6
9,immediate,23,1,2,0.9799222539613766,20,Female,2019-06-04,4,4,12,12,225,6
9,immediate,13,1,1,0.7708683928922255,20,Female,2019-06-04,4,4,13,13,226,6
9,immediate,63,1,2,0.8832059466167266,20,Female,2019-06-04,4,4,14,14,227,6
9,immediate,19,1,1,1.4082102983047662,20,Female,2019-06-04,4,4,15,15,228,6
9,immediate,26,2,1,1.289562101140291,20,Female,2019-06-04,4,4,16,16,229,6
9,immediate,51,1,1,2.9907694743060347,20,Female,2019-06-04,4,4,17,17,230,6
9,immediate,0,2,1,1.0378527302164002,20,Female,2019-06-04,4,4,18,18,231,6
9,immediate,45,1,1,0.60635695838846,20,Female,2019-06-04,4,4,19,19,232,6
9,immediate,43,1,1,0.6444239493421264,20,Female,2019-06-04,4,4,20,20,233,6
9,immediate,53,1,1,0.6675588529096785,20,Female,2019-06-04,4,4,21,21,234,6
9,immediate,12,2,2,1.5710453666961257,20,Female,2019-06-04,4,4,22,22,235,6
9,immediate,40,2,1,0.5282315574222594,20,Female,2019-06-04,4,4,23,23,236,6
9,immediate,16,2,2,1.1244248892444375,20,Female,2019-06-04,4,4,24,24,237,6
9,immediate,56,2,2,1.398694400806562,20,Female,2019-06-04,4,4,25,25,238,6
9,immediate,21,1,1,0.5252349988886635,20,Female,2019-06-04,4,4,26,26,239,6
9,immediate,9,1,2,0.6734827139816844,20,Female,2019-06-04,4,4,27,27,240,6
9,immediate,60,2,1,1.1288319203358697,20,Female,2019-06-04,4,4,28,28,241,6
9,immediate,58,2,1,0.7476667067576273,20,Female,2019-06-04,4,4,29,29,242,6
9,immediate,46,2,1,1.7034006858193607,20,Female,2019-06-04,4,4,30,30,243,6
9,immediate,42,2,2,3.0794721827423928,20,Female,2019-06-04,4,4,31,31,244,6
9,immediate,33,1,2,2.000420792010118,20,Female,2019-06-04,4,4,32,32,245,6
9,immediate,8,2,1,1.3248876058669339,20,Female,2019-06-04,4,4,33,33,246,6
9,immediate,11,1,1,1.028344253004434,20,Female,2019-06-04,4,4,34,34,247,6
9,immediate,29,1,1,0.4796793942086879,20,Female,2019-06-04,4,4,35,35,248,6
9,immediate,3,1,1,0.4898971270195034,20,Female,2019-06-04,4,4,36,36,249,6
9,immediate,1,1,1,0.4612517341056446,20,Female,2019-06-04,4,4,37,37,250,6
9,immediate,17,1,1,0.9921249130820797,20,Female,2019-06-04,4,4,38,38,251,6
9,immediate,27,1,1,0.5592468039440064,20,Female,2019-06-04,4,4,39,39,252,6
9,immediate,4,2,2,1.1723735359237253,20,Female,2019-06-04,4,4,40,40,253,6
9,immediate,44,2,2,1.0636923277652386,20,Female,2019-06-04,4,4,41,41,254,6
9,immediate,57,1,1,1.016709245705897,20,Female,2019-06-04,4,4,42,42,255,6
9,immediate,6,2,2,0.6483999855299771,20,Female,2019-06-04,4,4,43,43,256,6
9,immediate,15,1,1,0.7033589467155252,20,Female,2019-06-04,4,4,44,44,257,6
9,immediate,32,2,2,0.8180675907606201,20,Female,2019-06-04,4,4,45,45,258,6
9,immediate,3,2,1,2.2019192567840946,20,Female,2019-06-04,0,5,0,0,259,4
9,immediate,4,1,1,0.8061326802653639,20,Female,2019-06-04,0,5,1,1,260,4
9,immediate,54,1,1,0.8008018236587304,20,Female,2019-06-04,0,5,2,2,261,4
9,immediate,58,2,1,1.3575872571436776,20,Female,2019-06-04,0,5,3,3,262,4
9,immediate,43,2,2,1.5416737133609786,20,Female,2019-06-04,0,5,4,4,263,4
9,immediate,47,1,2,1.2499680773144064,20,Female,2019-06-04,0,5,5,5,264,4
9,immediate,10,2,2,0.5993806535234398,20,Female,2019-06-04,0,5,6,6,265,4
9,immediate,5,1,1,0.5576115585790831,20,Female,2019-06-04,0,5,7,7,266,4
9,immediate,51,2,2,0.6422451680800805,20,Female,2019-06-04,0,5,8,8,267,4
9,immediate,16,2,2,1.2729888939975353,20,Female,2019-06-04,0,5,9,9,268,4
9,immediate,61,1,1,0.9587889723434273,20,Female,2019-06-04,0,5,10,10,269,4
9,immediate,32,2,2,0.5734569594078494,20,Female,2019-06-04,0,5,11,11,270,4
9,immediate,46,1,1,0.9067999803364728,20,Female,2019-06-04,0,5,12,12,271,4
9,immediate,42,2,2,1.15980882871645,20,Female,2019-06-04,0,5,13,13,272,4
9,immediate,57,2,2,1.5633783569446678,20,Female,2019-06-04,0,5,14,14,273,4
9,immediate,11,2,2,0.47214409451953543,20,Female,2019-06-04,0,5,15,15,274,4
9,immediate,30,1,1,0.7459532392176698,20,Female,2019-06-04,0,5,16,16,275,4
9,immediate,17,2,2,0.7713912138251544,20,Female,2019-06-04,0,5,17,17,276,4
9,immediate,16,2,1,1.0821676013647448,20,Female,2019-06-04,1,6,0,0,277,5
9,immediate,34,1,2,0.9073280573047668,20,Female,2019-06-04,1,6,1,1,278,5
9,immediate,47,1,1,0.536487861495516,20,Female,2019-06-04,1,6,2,2,279,5
9,immediate,22,1,1,0.49303065165258886,20,Female,2019-06-04,1,6,3,3,280,5
9,immediate,63,1,1,0.6244272080830342,20,Female,2019-06-04,1,6,4,4,281,5
9,immediate,52,2,2,0.4067815842126947,20,Female,2019-06-04,1,6,5,5,282,5
9,immediate,10,1,1,0.4559981721358781,20,Female,2019-06-04,1,6,6,6,283,5
9,immediate,48,2,2,0.9866305010209544,20,Female,2019-06-04,1,6,7,7,284,5
9,immediate,23,1,1,0.7300166307140898,20,Female,2019-06-04,1,6,8,8,285,5
9,immediate,62,1,1,1.0273827077053284,20,Female,2019-06-04,1,6,9,9,286,5
9,immediate,59,1,1,2.339499075092135,20,Female,2019-06-04,1,6,10,10,287,5
9,immediate,31,1,1,0.5943144537577609,20,Female,2019-06-04,1,6,11,11,288,5
9,immediate,26,1,1,0.6545003875553448,20,Female,2019-06-04,1,6,12,12,289,5
9,immediate,18,1,1,0.5977534468001977,20,Female,2019-06-04,1,6,13,13,290,5
9,immediate,23,1,1,0.8586274883846272,20,Female,2019-06-04,2,7,0,0,291,2
9,immediate,27,1,2,0.870527770881381,20,Female,2019-06-04,2,7,1,1,292,2
9,immediate,43,2,1,0.9146453861130794,20,Female,2019-06-04,2,7,2,2,293,2
9,immediate,51,1,1,1.4884795433554245,20,Female,2019-06-04,2,7,3,3,294,2
9,immediate,39,2,1,0.651663983511753,20,Female,2019-06-04,2,7,4,4,295,2
9,immediate,61,1,2,0.8190699476281225,20,Female,2019-06-04,2,7,5,5,296,2
9,immediate,29,1,2,0.7976485115987089,20,Female,2019-06-04,2,7,6,6,297,2
9,immediate,6,2,1,0.6803164875336734,20,Female,2019-06-04,2,7,7,7,298,2
9,immediate,53,1,1,3.301148876584193,20,Female,2019-06-04,2,7,8,8,299,2
9,immediate,49,1,1,1.6038142739698742,20,Female,2019-06-04,2,7,9,9,300,2
9,immediate,57,1,1,0.7536613697166104,20,Female,2019-06-04,2,7,10,10,301,2
9,immediate,52,1,1,2.7154203112377218,20,Female,2019-06-04,2,7,11,11,302,2
9,immediate,9,2,1,2.0040001521165323,20,Female,2019-06-04,2,7,12,12,303,2
9,immediate,15,2,2,1.0993907018264508,20,Female,2019-06-04,2,7,13,13,304,2
9,immediate,54,1,1,0.8615059407111403,20,Female,2019-06-04,2,7,14,14,305,2
9,immediate,10,2,2,0.8258134410425555,20,Female,2019-06-04,2,7,15,15,306,2
9,immediate,47,2,1,0.523472990315895,20,Female,2019-06-04,2,7,16,16,307,2
9,immediate,35,2,1,0.7034090336410372,20,Female,2019-06-04,2,7,17,17,308,2
9,immediate,2,2,2,0.8955576298003507,20,Female,2019-06-04,2,7,18,18,309,2
9,immediate,62,1,2,1.212702786348018,20,Female,2019-06-04,2,7,19,19,310,2
9,immediate,24,1,2,1.0093792405768909,20,Female,2019-06-04,2,7,20,20,311,2
9,immediate,32,2,1,0.8649211270058004,20,Female,2019-06-04,2,7,21,21,312,2
9,immediate,50,1,2,1.872202281923819,20,Female,2019-06-04,2,7,22,22,313,2
9,immediate,63,1,1,0.8044940339359528,20,Female,2019-06-04,2,7,23,23,314,2
9,immediate,14,2,2,0.831358867565541,20,Female,2019-06-04,2,7,24,24,315,2
9,immediate,18,1,2,0.4428265474307409,20,Female,2019-06-04,2,7,25,25,316,2
9,immediate,3,2,1,0.8181467404692739,20,Female,2019-06-04,2,7,26,26,317,2
9,immediate,36,2,1,0.7970493235643517,20,Female,2019-06-04,2,7,27,27,318,2
9,immediate,20,1,2,0.9514212474305168,20,Female,2019-06-04,2,7,28,28,319,2
9,immediate,38,2,2,1.5257064961815558,20,Female,2019-06-04,2,7,29,29,320,2
9,immediate,17,1,1,0.9138545073756177,20,Female,2019-06-04,2,7,30,30,321,2
9,immediate,1,2,1,1.6690509486061273,20,Female,2019-06-04,2,7,31,31,322,2
9,immediate,56,1,1,1.2839313413369382,20,Female,2019-06-04,2,7,32,32,323,2
9,immediate,46,2,1,1.722343437391828,20,Female,2019-06-04,2,7,33,33,324,2
9,immediate,34,2,1,1.0675255234618817,20,Female,2019-06-04,2,7,34,34,325,2
9,immediate,30,1,1,0.7164956342448932,20,Female,2019-06-04,2,7,35,35,326,2
9,immediate,31,1,1,0.6292457558283786,20,Female,2019-06-04,2,7,36,36,327,2
9,immediate,60,1,1,0.7639010542061442,20,Female,2019-06-04,2,7,37,37,328,2
9,immediate,19,1,2,1.1578053516950604,20,Female,2019-06-04,2,7,38,38,329,2
9,immediate,59,1,1,0.9284910200640297,20,Female,2019-06-04,2,7,39,39,330,2
9,immediate,45,2,1,0.7821911298524356,20,Female,2019-06-04,2,7,40,40,331,2
9,immediate,41,2,1,2.191449852630285,20,Female,2019-06-04,2,7,41,41,332,2
9,immediate,40,2,1,1.0675295427836318,20,Female,2019-06-04,2,7,42,42,333,2
9,immediate,7,2,2,0.9407168675761568,20,Female,2019-06-04,2,7,43,43,334,2
9,immediate,28,1,2,0.6510196554081631,20,Female,2019-06-04,2,7,44,44,335,2
9,immediate,5,2,2,0.8980842369337552,20,Female,2019-06-04,2,7,45,45,336,2
9,immediate,16,1,2,0.8949973982626034,20,Female,2019-06-04,2,7,46,46,337,2
9,immediate,13,2,2,1.0360205381130072,20,Female,2019-06-04,2,7,47,47,338,2
9,immediate,25,1,2,3.1005689812900528,20,Female,2019-06-04,2,7,48,48,339,2
9,immediate,33,2,1,1.4027279442061626,20,Female,2019-06-04,2,7,49,49,340,2
9,immediate,11,2,1,0.6917270312032997,20,Female,2019-06-04,2,7,50,50,341,2
9,immediate,4,2,1,1.1000931554981435,20,Female,2019-06-04,2,7,51,51,342,2
9,immediate,44,2,2,0.6020216567212628,20,Female,2019-06-04,2,7,52,52,343,2
9,immediate,42,2,2,0.5060124407264084,20,Female,2019-06-04,2,7,53,53,344,2
9,immediate,55,1,1,0.7814837293244636,20,Female,2019-06-04,2,7,54,54,345,2
9,immediate,58,1,2,0.6635930196134723,20,Female,2019-06-04,2,7,55,55,346,2
9,immediate,37,2,2,0.6231215470552343,20,Female,2019-06-04,2,7,56,56,347,2
9,immediate,21,1,2,0.4055788796422348,20,Female,2019-06-04,2,7,57,57,348,2
9,immediate,48,1,2,0.7746428446653226,20,Female,2019-06-04,2,7,58,58,349,2
9,immediate,26,1,1,1.7928522247093497,20,Female,2019-06-04,2,7,59,59,350,2
9,immediate,22,1,2,1.7952230058526766,20,Female,2019-06-04,2,7,60,60,351,2
9,immediate,0,2,2,0.9977191898160527,20,Female,2019-06-04,2,7,61,61,352,2
9,immediate,12,2,2,0.589433142766211,20,Female,2019-06-04,2,7,62,62,353,2
9,immediate,8,2,2,0.6910895050268664,20,Female,2019-06-04,2,7,63,63,354,2
9,immediate,11,2,1,0.7190370819480449,20,Female,2019-06-04,2,7,64,0,355,2
9,immediate,56,1,2,0.7437024193532125,20,Female,2019-06-04,2,7,65,1,356,2
9,immediate,43,2,1,1.9851189270766554,20,Female,2019-06-04,2,7,66,2,357,2
9,immediate,23,1,1,0.7601157811850499,20,Female,2019-06-04,2,7,67,3,358,2
9,immediate,3,2,1,0.736572143568992,20,Female,2019-06-04,2,7,68,4,359,2
9,immediate,21,1,2,0.6656932695232172,20,Female,2019-06-04,2,7,69,5,360,2
9,immediate,62,1,1,0.2568791455050814,20,Female,2019-06-04,2,7,70,6,361,2
9,immediate,22,1,1,1.774983868608615,20,Female,2019-06-04,2,7,71,7,362,2
9,immediate,50,1,1,1.0730452881653036,20,Female,2019-06-04,2,7,72,8,363,2
9,immediate,49,1,1,2.6024000912693737,20,Female,2019-06-04,2,7,73,9,364,2
9,immediate,39,2,1,0.7041887819514159,20,Female,2019-06-04,2,7,74,10,365,2
9,immediate,51,1,2,0.6505135301167684,20,Female,2019-06-04,2,7,75,11,366,2
9,immediate,0,2,1,0.5453322231769562,20,Female,2019-06-04,2,7,76,12,367,2
9,immediate,28,1,1,0.5183134186281677,20,Female,2019-06-04,2,7,77,13,368,2
9,immediate,37,2,1,0.6181001781797022,20,Female,2019-06-04,2,7,78,14,369,2
9,immediate,33,2,2,0.9124029140702987,20,Female,2019-06-04,2,7,79,15,370,2
9,immediate,59,1,1,1.341904484233055,20,Female,2019-06-04,2,7,80,16,371,2
9,immediate,55,1,2,1.9254542683174805,20,Female,2019-06-04,2,7,81,17,372,2
9,immediate,17,1,1,0.39553490517573664,20,Female,2019-06-04,2,7,82,18,373,2
9,immediate,46,2,2,0.8988528548161412,20,Female,2019-06-04,2,7,83,19,374,2
9,immediate,12,2,2,2.09606795991931,20,Female,2019-06-04,2,7,84,20,375,2
9,immediate,13,2,2,0.6498064387669729,20,Female,2019-06-04,2,7,85,21,376,2
9,immediate,36,2,1,0.6409113718036679,20,Female,2019-06-04,2,7,86,22,377,2
9,immediate,27,1,2,0.7757064188863296,20,Female,2019-06-04,2,7,87,23,378,2
9,immediate,4,2,1,0.9298523332308832,20,Female,2019-06-04,2,7,88,24,379,2
9,immediate,9,2,1,1.1837160603108714,20,Female,2019-06-04,2,7,89,25,380,2
9,immediate,19,1,2,0.88353553095385,20,Female,2019-06-04,2,7,90,26,381,2
9,immediate,20,1,1,0.4804096739499073,20,Female,2019-06-04,2,7,91,27,382,2
9,immediate,15,2,1,0.9492254613478508,20,Female,2019-06-04,2,7,92,28,383,2
9,immediate,32,2,1,0.9894183640308256,20,Female,2019-06-04,2,7,93,29,384,2
9,immediate,45,2,1,0.7489451600722532,20,Female,2019-06-04,2,7,94,30,385,2
9,immediate,31,1,2,0.8222912789697148,20,Female,2019-06-04,2,7,95,31,386,2
9,immediate,14,2,1,0.6089215944830357,20,Female,2019-06-04,2,7,96,32,387,2
9,immediate,57,1,1,1.0469388695255475,20,Female,2019-06-04,2,7,97,33,388,2
9,immediate,60,1,1,0.9034048906478347,20,Female,2019-06-04,2,7,98,34,389,2
9,immediate,48,1,1,0.5965491963361274,20,Female,2019-06-04,2,7,99,35,390,2
9,immediate,42,2,1,0.5865750962238963,20,Female,2019-06-04,2,7,100,36,391,2
9,immediate,29,1,1,1.3121036910670227,20,Female,2019-06-04,2,7,101,37,392,2
9,immediate,54,1,1,0.6310467208986665,20,Female,2019-06-04,2,7,102,38,393,2
9,immediate,52,1,1,0.7978417481945144,20,Female,2019-06-04,2,7,103,39,394,2
9,immediate,53,1,1,0.6323489809628882,20,Female,2019-06-04,2,7,104,40,395,2
9,immediate,34,2,1,0.8471245003293006,20,Female,2019-06-04,2,7,105,41,396,2
9,immediate,25,1,2,0.6145718325351481,20,Female,2019-06-04,2,7,106,42,397,2
9,immediate,26,1,1,1.7890035700847875,20,Female,2019-06-04,2,7,107,43,398,2
9,immediate,24,1,1,1.0152632176150291,20,Female,2019-06-04,2,7,108,44,399,2
9,immediate,30,1,1,0.4871275055438673,20,Female,2019-06-04,2,7,109,45,400,2
9,immediate,2,2,1,0.5224360054498902,20,Female,2019-06-04,2,7,110,46,401,2
9,immediate,18,1,1,1.0705768065990924,20,Female,2019-06-04,2,7,111,47,402,2
9,immediate,8,2,2,0.5278336446244793,20,Female,2019-06-04,2,7,112,48,403,2
9,immediate,41,2,2,0.5800127814409279,20,Female,2019-06-04,2,7,113,49,404,2
9,immediate,44,2,2,1.917564031650727,20,Female,2019-06-04,2,7,114,50,405,2
9,immediate,58,1,2,0.5789659028614551,20,Female,2019-06-04,2,7,115,51,406,2
9,immediate,35,2,1,0.7283445931007009,20,Female,2019-06-04,2,7,116,52,407,2
9,immediate,5,2,1,0.6892996703845711,20,Female,2019-06-04,2,7,117,53,408,2
9,immediate,6,2,1,0.7935181953116626,20,Female,2019-06-04,2,7,118,54,409,2
9,immediate,61,1,2,0.9960718864867886,20,Female,2019-06-04,2,7,119,55,410,2
9,immediate,7,2,1,0.6915232825358544,20,Female,2019-06-04,2,7,120,56,411,2
9,immediate,1,2,2,0.5716770184799316,20,Female,2019-06-04,2,7,121,57,412,2
9,immediate,38,2,1,1.5209729725384022,20,Female,2019-06-04,2,7,122,58,413,2
9,immediate,47,2,2,0.6343376174145305,20,Female,2019-06-04,2,7,123,59,414,2
9,immediate,40,2,2,0.929317763513609,20,Female,2019-06-04,2,7,124,60,415,2
9,immediate,10,2,1,0.5307832080179651,20,Female,2019-06-04,2,7,125,61,416,2
9,immediate,16,1,2,0.5831886635351111,20,Female,2019-06-04,2,7,126,62,417,2
9,immediate,63,1,2,0.7646823484092238,20,Female,2019-06-04,2,7,127,63,418,2
9,immediate,32,2,1,1.3662887783330007,20,Female,2019-06-04,2,7,128,0,419,2
9,immediate,21,1,2,0.6068924556420825,20,Female,2019-06-04,2,7,129,1,420,2
9,immediate,20,1,1,0.7240194943260576,20,Female,2019-06-04,2,7,130,2,421,2
9,immediate,60,1,1,0.8499401894086986,20,Female,2019-06-04,2,7,131,3,422,2
9,immediate,2,2,1,0.5904729102394413,20,Female,2019-06-04,2,7,132,4,423,2
9,immediate,1,2,1,1.6035882644482626,20,Female,2019-06-04,2,7,133,5,424,2
9,immediate,29,1,2,0.5615081358782845,20,Female,2019-06-04,2,7,134,6,425,2
9,immediate,33,2,1,0.9504046683487104,20,Female,2019-06-04,2,7,135,7,426,2
9,immediate,19,1,2,0.8686983613852135,20,Female,2019-06-04,2,7,136,8,427,2
9,immediate,27,1,1,0.63011362002635,20,Female,2019-06-04,2,7,137,9,428,2
9,immediate,22,1,1,1.0847990200281856,20,Female,2019-06-04,2,7,138,10,429,2
