sub_num,condition,stim_id,cat,resp,rt,age,gender,date,prob_num,num_problems_solved,current_trial_prob,current_trial_stim,current_trial_exp,relevant_dim
23,immediate,57,1,1,3.5711488529159396,19,Male,2019-06-06,0,0,0,0,0,1
23,immediate,41,1,2,0.9313793024557526,19,Male,2019-06-06,0,0,1,1,1,1
23,immediate,45,1,2,1.1052336557240778,19,Male,2019-06-06,0,0,2,2,2,1
23,immediate,17,2,2,1.7227225422902848,19,Male,2019-06-06,0,0,3,3,3,1
23,immediate,37,1,2,1.723423759898651,19,Male,2019-06-06,0,0,4,4,4,1
23,immediate,0,2,2,1.2436004617884464,19,Male,2019-06-06,0,0,5,5,5,1
23,immediate,54,1,1,1.089963931197417,19,Male,2019-06-06,0,0,6,6,6,1
23,immediate,35,1,2,1.0570271094202326,19,Male,2019-06-06,0,0,7,7,7,1
23,immediate,28,2,1,1.521748257931904,19,Male,2019-06-06,0,0,8,8,8,1
23,immediate,46,1,1,1.8379306165588787,19,Male,2019-06-06,0,0,9,9,9,1
23,immediate,26,2,2,2.4335565398432664,19,Male,2019-06-06,0,0,10,10,10,1
23,immediate,43,1,1,1.3955312527250499,19,Male,2019-06-06,0,0,11,11,11,1
23,immediate,1,2,1,1.867845215178022,19,Male,2019-06-06,0,0,12,12,12,1
23,immediate,31,2,1,3.168535240512938,19,Male,2019-06-06,0,0,13,13,13,1
23,immediate,39,1,1,1.115255996986889,19,Male,2019-06-06,0,0,14,14,14,1
23,immediate,58,1,1,1.2298747763870779,19,Male,2019-06-06,0,0,15,15,15,1
23,immediate,38,1,2,1.2347511450425372,19,Male,2019-06-06,0,0,16,16,16,1
23,immediate,34,1,2,0.9516190768281376,19,Male,2019-06-06,0,0,17,17,17,1
23,immediate,19,2,2,0.9979062408983737,19,Male,2019-06-06,0,0,18,18,18,1
23,immediate,21,2,2,1.2053377253214421,19,Male,2019-06-06,0,0,19,19,19,1
23,immediate,23,2,2,1.3619921505669481,19,Male,2019-06-06,0,0,20,20,20,1
23,immediate,9,2,2,1.0509718418452394,19,Male,2019-06-06,0,0,21,21,21,1
23,immediate,15,2,2,0.6833526363989222,19,Male,2019-06-06,0,0,22,22,22,1
23,immediate,52,1,1,0.40318342900354764,19,Male,2019-06-06,0,0,23,23,23,1
23,immediate,25,2,2,0.5511069529984525,19,Male,2019-06-06,0,0,24,24,24,1
23,immediate,30,2,2,0.5239576499188843,19,Male,2019-06-06,0,0,25,25,25,1
23,immediate,51,1,1,0.43196117703155323,19,Male,2019-06-06,0,0,26,26,26,1
23,immediate,47,1,1,0.4339609457656479,19,Male,2019-06-06,0,0,27,27,27,1
23,immediate,8,2,2,1.1397686229229294,19,Male,2019-06-06,0,0,28,28,28,1
23,immediate,55,1,1,0.5185952521260333,19,Male,2019-06-06,0,0,29,29,29,1
23,immediate,28,1,1,0.9648958345569554,19,Male,2019-06-06,1,1,0,0,30,3
23,immediate,50,2,2,1.4271815813499416,19,Male,2019-06-06,1,1,1,1,31,3
23,immediate,35,2,2,1.1813398821523151,19,Male,2019-06-06,1,1,2,2,32,3
23,immediate,5,2,2,0.8967893014232686,19,Male,2019-06-06,1,1,3,3,33,3
23,immediate,49,2,2,0.8620675902038784,19,Male,2019-06-06,1,1,4,4,34,3
23,immediate,14,1,1,0.47438082299777307,19,Male,2019-06-06,1,1,5,5,35,3
23,immediate,62,1,1,0.7815128986312629,19,Male,2019-06-06,1,1,6,6,36,3
23,immediate,43,1,1,0.5497122472534102,19,Male,2019-06-06,1,1,7,7,37,3
23,immediate,26,1,1,0.5385787172417622,19,Male,2019-06-06,1,1,8,8,38,3
23,immediate,7,2,2,0.8150467447485426,19,Male,2019-06-06,1,1,9,9,39,3
23,immediate,16,2,2,0.9060173622474395,19,Male,2019-06-06,1,1,10,10,40,3
23,immediate,48,2,2,0.8230520032611821,19,Male,2019-06-06,1,1,11,11,41,3
23,immediate,22,1,2,1.184328713994546,19,Male,2019-06-06,2,2,0,0,42,2
23,immediate,43,2,2,1.8345049150157138,19,Male,2019-06-06,2,2,1,1,43,2
23,immediate,54,1,1,0.66313605043797,19,Male,2019-06-06,2,2,2,2,44,2
23,immediate,27,1,1,0.5104607568573556,19,Male,2019-06-06,2,2,3,3,45,2
23,immediate,36,2,2,0.7222544455289608,19,Male,2019-06-06,2,2,4,4,46,2
23,immediate,49,1,1,0.5715693361362355,19,Male,2019-06-06,2,2,5,5,47,2
23,immediate,60,1,1,0.6083721301238256,19,Male,2019-06-06,2,2,6,6,48,2
23,immediate,62,1,1,0.6533196222808328,19,Male,2019-06-06,2,2,7,7,49,2
23,immediate,37,2,2,0.7725028088898398,19,Male,2019-06-06,2,2,8,8,50,2
23,immediate,6,2,2,0.5991709678601183,19,Male,2019-06-06,2,2,9,9,51,2
23,immediate,1,2,2,0.6536025209206855,19,Male,2019-06-06,2,2,10,10,52,2
23,immediate,25,1,1,0.676809484617479,19,Male,2019-06-06,2,2,11,11,53,2
23,immediate,7,2,2,0.5727015490465419,19,Male,2019-06-06,2,2,12,12,54,2
23,immediate,11,1,1,1.764157144474666,19,Male,2019-06-06,3,3,0,0,55,6
23,immediate,20,2,2,1.9901783158038597,19,Male,2019-06-06,3,3,1,1,56,6
23,immediate,33,1,1,0.5574012158140249,19,Male,2019-06-06,3,3,2,2,57,6
23,immediate,22,2,2,0.8667160940585745,19,Male,2019-06-06,3,3,3,3,58,6
23,immediate,44,2,2,2.7955796082951565,19,Male,2019-06-06,3,3,4,4,59,6
23,immediate,29,1,2,0.5178439475457708,19,Male,2019-06-06,3,3,5,5,60,6
23,immediate,6,2,2,1.034440358474967,19,Male,2019-06-06,3,3,6,6,61,6
23,immediate,59,1,1,0.5385409974223876,19,Male,2019-06-06,3,3,7,7,62,6
23,immediate,43,1,1,1.3117196712555597,19,Male,2019-06-06,3,3,8,8,63,6
23,immediate,28,2,1,0.6303522721864283,19,Male,2019-06-06,3,3,9,9,64,6
23,immediate,52,2,2,1.0849663644348766,19,Male,2019-06-06,3,3,10,10,65,6
23,immediate,2,2,2,1.662490175842322,19,Male,2019-06-06,3,3,11,11,66,6
23,immediate,5,1,2,0.7547837695947237,19,Male,2019-06-06,3,3,12,12,67,6
23,immediate,48,2,1,1.036450639288887,19,Male,2019-06-06,3,3,13,13,68,6
23,immediate,57,1,1,1.4095154116366757,19,Male,2019-06-06,3,3,14,14,69,6
23,immediate,58,2,1,1.2270089977228054,19,Male,2019-06-06,3,3,15,15,70,6
23,immediate,26,2,2,1.2639073279715376,19,Male,2019-06-06,3,3,16,16,71,6
23,immediate,16,2,2,0.8376050512397342,19,Male,2019-06-06,3,3,17,17,72,6
23,immediate,35,1,1,0.8652975815421087,19,Male,2019-06-06,3,3,18,18,73,6
23,immediate,41,1,1,0.6376637333851249,19,Male,2019-06-06,3,3,19,19,74,6
23,immediate,27,1,1,0.6975009692760068,19,Male,2019-06-06,3,3,20,20,75,6
23,immediate,47,1,1,0.6739798798771517,19,Male,2019-06-06,3,3,21,21,76,6
23,immediate,38,2,2,0.4096332087756309,19,Male,2019-06-06,3,3,22,22,77,6
23,immediate,13,1,1,1.2107999878789997,19,Male,2019-06-06,3,3,23,23,78,6
23,immediate,46,2,2,0.8155553439391952,19,Male,2019-06-06,3,3,24,24,79,6
23,immediate,7,1,1,1.4027515061643498,19,Male,2019-06-06,3,3,25,25,80,6
23,immediate,9,1,1,0.835829437164648,19,Male,2019-06-06,3,3,26,26,81,6
23,immediate,31,1,1,0.63565623517934,19,Male,2019-06-06,3,3,27,27,82,6
23,immediate,12,1,1,1.146471001808095,19,Male,2019-06-06,4,4,0,0,83,4
23,immediate,40,2,1,1.2935776753092796,19,Male,2019-06-06,4,4,1,1,84,4
23,immediate,2,2,2,1.1563437005115702,19,Male,2019-06-06,4,4,2,2,85,4
23,immediate,56,2,2,0.8388117762515321,19,Male,2019-06-06,4,4,3,3,86,4
23,immediate,6,1,1,0.6267880585237435,19,Male,2019-06-06,4,4,4,4,87,4
23,immediate,58,2,2,3.75329198169311,19,Male,2019-06-06,4,4,5,5,88,4
23,immediate,57,2,2,1.3992519108796841,19,Male,2019-06-06,4,4,6,6,89,4
23,immediate,28,1,1,0.9922785676608328,19,Male,2019-06-06,4,4,7,7,90,4
23,immediate,7,1,1,0.7516323096842825,19,Male,2019-06-06,4,4,8,8,91,4
23,immediate,59,2,2,0.5371342337039096,19,Male,2019-06-06,4,4,9,9,92,4
23,immediate,16,2,1,0.7132891867167928,19,Male,2019-06-06,4,4,10,10,93,4
23,immediate,17,2,2,0.8660473402287607,19,Male,2019-06-06,4,4,11,11,94,4
23,immediate,47,1,1,0.8944562378983392,19,Male,2019-06-06,4,4,12,12,95,4
23,immediate,8,2,2,0.5386523018059961,19,Male,2019-06-06,4,4,13,13,96,4
23,immediate,42,2,2,0.6869347824340366,19,Male,2019-06-06,4,4,14,14,97,4
23,immediate,60,1,1,0.6149437263593427,19,Male,2019-06-06,4,4,15,15,98,4
23,immediate,37,1,1,0.5894522402159055,19,Male,2019-06-06,4,4,16,16,99,4
23,immediate,11,2,2,0.6752107208376401,19,Male,2019-06-06,4,4,17,17,100,4
23,immediate,32,2,2,0.5867614567760029,19,Male,2019-06-06,4,4,18,18,101,4
23,immediate,62,1,1,0.5287270426979376,19,Male,2019-06-06,4,4,19,19,102,4
23,immediate,31,1,1,0.8047980845749407,19,Male,2019-06-06,4,4,20,20,103,4
23,immediate,15,1,1,0.676671281677045,19,Male,2019-06-06,4,4,21,21,104,4
23,immediate,5,1,1,0.6045213076777145,19,Male,2019-06-06,4,4,22,22,105,4
23,immediate,56,1,1,1.164066060386176,19,Male,2019-06-06,0,5,0,0,106,1
23,immediate,62,1,2,1.1038216359647777,19,Male,2019-06-06,0,5,1,1,107,1
23,immediate,54,1,2,0.8175300691873417,19,Male,2019-06-06,0,5,2,2,108,1
23,immediate,26,2,2,1.0207428083467676,19,Male,2019-06-06,0,5,3,3,109,1
23,immediate,10,2,2,0.7965457921691268,19,Male,2019-06-06,0,5,4,4,110,1
23,immediate,8,2,2,0.615255687807803,19,Male,2019-06-06,0,5,5,5,111,1
23,immediate,15,2,2,0.6056726896767941,19,Male,2019-06-06,0,5,6,6,112,1
23,immediate,41,1,2,1.2838073147995601,19,Male,2019-06-06,0,5,7,7,113,1
23,immediate,9,2,2,0.9382634784979018,19,Male,2019-06-06,0,5,8,8,114,1
23,immediate,24,2,2,1.1916942814896174,19,Male,2019-06-06,0,5,9,9,115,1
23,immediate,40,1,1,0.6363228247573716,19,Male,2019-06-06,0,5,10,10,116,1
23,immediate,25,2,2,0.8502764368004136,19,Male,2019-06-06,0,5,11,11,117,1
23,immediate,58,1,1,0.6235741444870655,19,Male,2019-06-06,0,5,12,12,118,1
23,immediate,32,1,1,0.7899899640542571,19,Male,2019-06-06,0,5,13,13,119,1
23,immediate,30,2,2,0.8962321611543302,19,Male,2019-06-06,0,5,14,14,120,1
23,immediate,19,2,2,1.0373825043116085,19,Male,2019-06-06,0,5,15,15,121,1
23,immediate,2,2,2,0.5579345493115397,19,Male,2019-06-06,0,5,16,16,122,1
23,immediate,48,1,1,0.6587110828859295,19,Male,2019-06-06,0,5,17,17,123,1
23,immediate,23,2,2,0.7624507864584302,19,Male,2019-06-06,0,5,18,18,124,1
23,immediate,20,2,2,0.8522394132523914,19,Male,2019-06-06,0,5,19,19,125,1
23,immediate,31,1,2,1.2530090830550762,19,Male,2019-06-06,1,6,0,0,126,3
23,immediate,36,2,2,0.8300456286142435,19,Male,2019-06-06,1,6,1,1,127,3
23,immediate,60,1,2,0.7616487765499187,19,Male,2019-06-06,1,6,2,2,128,3
23,immediate,53,2,2,1.1870306278742646,19,Male,2019-06-06,1,6,3,3,129,3
23,immediate,18,2,1,0.9190835691861139,19,Male,2019-06-06,1,6,4,4,130,3
23,immediate,37,2,1,1.4037275837617926,19,Male,2019-06-06,1,6,5,5,131,3
23,immediate,47,1,2,0.8048778527154354,19,Male,2019-06-06,1,6,6,6,132,3
23,immediate,16,2,1,1.2148718731987174,19,Male,2019-06-06,1,6,7,7,133,3
23,immediate,61,1,1,1.027000278880223,19,Male,2019-06-06,1,6,8,8,134,3
23,immediate,27,1,1,0.83551345638989,19,Male,2019-06-06,1,6,9,9,135,3
23,immediate,25,1,1,0.6391728352991777,19,Male,2019-06-06,1,6,10,10,136,3
23,immediate,29,1,1,0.6620183689319674,19,Male,2019-06-06,1,6,11,11,137,3
23,immediate,44,1,1,0.7037516378750297,19,Male,2019-06-06,1,6,12,12,138,3
23,immediate,28,1,1,0.5682605041965871,19,Male,2019-06-06,1,6,13,13,139,3
23,immediate,7,2,2,0.5092407371557783,19,Male,2019-06-06,1,6,14,14,140,3
23,immediate,41,1,1,0.6570752176467067,19,Male,2019-06-06,1,6,15,15,141,3
23,immediate,43,1,1,0.6967270946406643,19,Male,2019-06-06,1,6,16,16,142,3
23,immediate,11,1,1,0.5924658063668176,19,Male,2019-06-06,1,6,17,17,143,3
23,immediate,52,2,2,0.7901430075798999,19,Male,2019-06-06,1,6,18,18,144,3
23,immediate,56,1,1,1.1601827741615125,19,Male,2019-06-06,1,6,19,19,145,3
23,immediate,12,2,2,1.180903321632286,19,Male,2019-06-06,2,7,0,0,146,2
23,immediate,20,1,1,1.1527346559178113,19,Male,2019-06-06,2,7,1,1,147,2
23,immediate,29,1,2,1.4598911566808965,19,Male,2019-06-06,2,7,2,2,148,2
23,immediate,24,1,1,0.7984017927410605,19,Male,2019-06-06,2,7,3,3,149,2
23,immediate,36,2,2,0.904950076892419,19,Male,2019-06-06,2,7,4,4,150,2
23,immediate,44,2,2,0.9210147002177109,19,Male,2019-06-06,2,7,5,5,151,2
23,immediate,39,2,2,1.7184781351825222,19,Male,2019-06-06,2,7,6,6,152,2
23,immediate,18,1,1,0.6150760549026018,19,Male,2019-06-06,2,7,7,7,153,2
23,immediate,25,1,1,0.5978461365320982,19,Male,2019-06-06,2,7,8,8,154,2
23,immediate,32,2,2,1.163874369507539,19,Male,2019-06-06,2,7,9,9,155,2
23,immediate,21,1,1,0.6232618738577003,19,Male,2019-06-06,2,7,10,10,156,2
23,immediate,0,2,2,0.9657643179161823,19,Male,2019-06-06,2,7,11,11,157,2
23,immediate,5,2,2,0.7082752334772522,19,Male,2019-06-06,2,7,12,12,158,2
23,immediate,56,1,1,0.6209792064855719,19,Male,2019-06-06,2,7,13,13,159,2
23,immediate,62,1,1,0.6273513823707617,19,Male,2019-06-06,2,7,14,14,160,2
23,immediate,23,1,2,1.0139235598617233,19,Male,2019-06-06,3,8,0,0,161,6
23,immediate,49,1,1,0.9589552723336965,19,Male,2019-06-06,3,8,1,1,162,6
23,immediate,54,2,1,0.9896088083823997,19,Male,2019-06-06,3,8,2,2,163,6
23,immediate,8,2,2,0.7649848162272974,19,Male,2019-06-06,3,8,3,3,164,6
23,immediate,9,1,2,1.6069279557650589,19,Male,2019-06-06,3,8,4,4,165,6
23,immediate,29,1,1,1.46063380425403,19,Male,2019-06-06,3,8,5,5,166,6
23,immediate,32,2,2,0.6232671298985224,19,Male,2019-06-06,3,8,6,6,167,6
23,immediate,18,2,2,0.7895892682790873,19,Male,2019-06-06,3,8,7,7,168,6
23,immediate,28,2,2,1.0723425924152252,19,Male,2019-06-06,3,8,8,8,169,6
23,immediate,22,2,2,0.7533884454915096,19,Male,2019-06-06,3,8,9,9,170,6
23,immediate,35,1,1,0.5071680022174405,19,Male,2019-06-06,3,8,10,10,171,6
23,immediate,62,2,2,0.862922778875145,19,Male,2019-06-06,3,8,11,11,172,6
23,immediate,14,2,2,0.7312394917826168,19,Male,2019-06-06,3,8,12,12,173,6
23,immediate,63,1,1,0.7719898811938037,19,Male,2019-06-06,3,8,13,13,174,6
23,immediate,3,1,1,0.8737916518002748,19,Male,2019-06-06,3,8,14,14,175,6
23,immediate,26,2,2,0.9345125208146783,19,Male,2019-06-06,3,8,15,15,176,6
23,immediate,51,1,1,0.7092333787004463,19,Male,2019-06-06,3,8,16,16,177,6
23,immediate,9,2,2,0.8694461432096432,19,Male,2019-06-06,4,9,0,0,178,4
23,immediate,30,1,2,1.5377665044306923,19,Male,2019-06-06,4,9,1,1,179,4
23,immediate,44,1,2,1.1501066357832315,19,Male,2019-06-06,4,9,2,2,180,4
23,immediate,4,1,2,0.8666820843864116,19,Male,2019-06-06,4,9,3,3,181,4
23,immediate,46,1,1,2.2076911946496693,19,Male,2019-06-06,4,9,4,4,182,4
23,immediate,0,2,1,0.7800344054212474,19,Male,2019-06-06,4,9,5,5,183,4
23,immediate,10,2,2,0.6782125381923834,19,Male,2019-06-06,4,9,6,6,184,4
23,immediate,17,2,1,0.6541071007868595,19,Male,2019-06-06,4,9,7,7,185,4
23,immediate,7,1,2,1.4132731712525128,19,Male,2019-06-06,4,9,8,8,186,4
23,immediate,22,1,1,1.1346180126365653,19,Male,2019-06-06,4,9,9,9,187,4
23,immediate,3,2,2,0.7064937450031721,19,Male,2019-06-06,4,9,10,10,188,4
23,immediate,49,2,2,1.003233701483623,19,Male,2019-06-06,4,9,11,11,189,4
23,immediate,56,2,2,0.874890782573857,19,Male,2019-06-06,4,9,12,12,190,4
23,immediate,36,1,1,1.3833168334895163,19,Male,2019-06-06,4,9,13,13,191,4
23,immediate,18,2,2,0.8319971654491383,19,Male,2019-06-06,4,9,14,14,192,4
23,immediate,8,2,2,1.7245587554189115,19,Male,2019-06-06,4,9,15,15,193,4
23,immediate,40,2,2,0.7811561062499095,19,Male,2019-06-06,4,9,16,16,194,4
23,immediate,26,2,2,0.9513343231192266,19,Male,2019-06-06,4,9,17,17,195,4
23,immediate,24,2,2,0.5656228995158017,19,Male,2019-06-06,4,9,18,18,196,4
23,immediate,35,2,2,0.9710364354887133,19,Male,2019-06-06,4,9,19,19,197,4
23,immediate,47,1,1,1.0338105611772335,19,Male,2019-06-06,4,9,20,20,198,4
23,immediate,21,2,1,1.3989099590835394,19,Male,2019-06-06,0,10,0,0,199,1
23,immediate,59,1,2,0.8564937140854454,19,Male,2019-06-06,0,10,1,1,200,1
23,immediate,23,2,2,1.5884690515085822,19,Male,2019-06-06,0,10,2,2,201,1
23,immediate,17,2,2,1.2819488407967583,19,Male,2019-06-06,0,10,3,3,202,1
23,immediate,55,1,2,0.5201402187867643,19,Male,2019-06-06,0,10,4,4,203,1
23,immediate,3,2,2,0.8121784926552209,19,Male,2019-06-06,0,10,5,5,204,1
23,immediate,2,2,2,0.6792841520491493,19,Male,2019-06-06,0,10,6,6,205,1
23,immediate,43,1,2,0.6389019946363987,19,Male,2019-06-06,0,10,7,7,206,1
23,immediate,53,1,1,1.1098023914364603,19,Male,2019-06-06,0,10,8,8,207,1
23,immediate,40,1,1,0.5356514119885105,19,Male,2019-06-06,0,10,9,9,208,1
23,immediate,16,2,2,0.8101462601407547,19,Male,2019-06-06,0,10,10,10,209,1
23,immediate,34,1,1,0.8370259592738876,19,Male,2019-06-06,0,10,11,11,210,1
23,immediate,6,2,2,0.9445534128080908,19,Male,2019-06-06,0,10,12,12,211,1
23,immediate,25,2,2,1.4549300730213872,19,Male,2019-06-06,0,10,13,13,212,1
23,immediate,14,2,2,0.7955023135855299,19,Male,2019-06-06,0,10,14,14,213,1
23,immediate,51,1,1,0.789996147630518,19,Male,2019-06-06,0,10,15,15,214,1
23,immediate,49,1,1,1.8885441201291542,19,Male,2019-06-06,0,10,16,16,215,1
23,immediate,1,2,2,0.8852018968736957,19,Male,2019-06-06,0,10,17,17,216,1
23,immediate,37,1,1,0.8660204416682973,19,Male,2019-06-06,0,10,18,18,217,1
23,immediate,7,2,2,1.1662207277204288,19,Male,2019-06-06,0,10,19,19,218,1
23,immediate,55,2,2,1.1914435374510504,19,Male,2019-06-06,1,11,0,0,219,3
23,immediate,51,2,2,1.6220347430444235,19,Male,2019-06-06,1,11,1,1,220,3
23,immediate,16,2,2,1.9882765567617753,19,Male,2019-06-06,1,11,2,2,221,3
23,immediate,47,1,1,0.47105467704022885,19,Male,2019-06-06,1,11,3,3,222,3
23,immediate,12,1,1,0.6980200805483037,19,Male,2019-06-06,1,11,4,4,223,3
23,immediate,36,2,2,0.562188231788241,19,Male,2019-06-06,1,11,5,5,224,3
23,immediate,50,2,2,0.5831233493718173,19,Male,2019-06-06,1,11,6,6,225,3
23,immediate,62,1,1,0.780728821095181,19,Male,2019-06-06,1,11,7,7,226,3
23,immediate,14,1,1,0.6950241375907353,19,Male,2019-06-06,1,11,8,8,227,3
23,immediate,17,2,2,0.43142660681769485,19,Male,2019-06-06,1,11,9,9,228,3
23,immediate,24,1,1,0.5290751780721621,19,Male,2019-06-06,1,11,10,10,229,3
23,immediate,44,1,1,0.7891567270835367,19,Male,2019-06-06,1,11,11,11,230,3
23,immediate,50,1,1,0.9117127456502203,19,Male,2019-06-06,2,12,0,0,231,2
23,immediate,24,1,1,0.7969341207917751,19,Male,2019-06-06,2,12,1,1,232,2
23,immediate,17,1,2,0.4234859666812554,19,Male,2019-06-06,2,12,2,2,233,2
23,immediate,56,1,1,1.1770410595690919,19,Male,2019-06-06,2,12,3,3,234,2
23,immediate,1,2,1,0.9889391270153283,19,Male,2019-06-06,2,12,4,4,235,2
23,immediate,27,1,1,1.0843121420093667,19,Male,2019-06-06,2,12,5,5,236,2
23,immediate,60,1,1,0.5337193534196558,19,Male,2019-06-06,2,12,6,6,237,2
23,immediate,14,2,2,0.5814673875065637,19,Male,2019-06-06,2,12,7,7,238,2
23,immediate,16,1,1,0.5547326932501164,19,Male,2019-06-06,2,12,8,8,239,2
23,immediate,28,1,1,1.0555900461731653,19,Male,2019-06-06,2,12,9,9,240,2
23,immediate,47,2,2,0.8006458127601945,19,Male,2019-06-06,2,12,10,10,241,2
23,immediate,10,2,2,0.9233972323545458,19,Male,2019-06-06,2,12,11,11,242,2
23,immediate,18,1,1,0.5331241841540759,19,Male,2019-06-06,2,12,12,12,243,2
23,immediate,45,2,2,0.36097649807925336,19,Male,2019-06-06,2,12,13,13,244,2
23,immediate,61,1,2,0.2650302655165433,19,Male,2019-06-06,2,12,14,14,245,2
23,immediate,15,2,2,0.5989724750452297,19,Male,2019-06-06,2,12,15,15,246,2
23,immediate,7,2,2,0.3488607068939018,19,Male,2019-06-06,2,12,16,16,247,2
23,immediate,12,2,2,0.5089807177537296,19,Male,2019-06-06,2,12,17,17,248,2
23,immediate,9,2,2,0.46476907123360434,19,Male,2019-06-06,2,12,18,18,249,2
23,immediate,58,1,1,0.35455021589950775,19,Male,2019-06-06,2,12,19,19,250,2
23,immediate,42,2,2,0.4025808394453634,19,Male,2019-06-06,2,12,20,20,251,2
23,immediate,5,2,2,0.612041773771125,19,Male,2019-06-06,2,12,21,21,252,2
23,immediate,44,2,2,0.4725909866956499,19,Male,2019-06-06,2,12,22,22,253,2
23,immediate,59,1,1,0.45968524357340357,19,Male,2019-06-06,2,12,23,23,254,2
23,immediate,6,2,2,0.5104888921305246,19,Male,2019-06-06,2,12,24,24,255,2
23,immediate,21,1,1,0.7702000448916806,19,Male,2019-06-06,2,12,25,25,256,2
23,immediate,35,2,2,0.5883475442224153,19,Male,2019-06-06,2,12,26,26,257,2
23,immediate,13,1,2,0.9087285514906398,19,Male,2019-06-06,3,13,0,0,258,6
23,immediate,33,1,1,0.8579415985914238,19,Male,2019-06-06,3,13,1,1,259,6
23,immediate,27,1,1,0.7900347949853312,19,Male,2019-06-06,3,13,2,2,260,6
23,immediate,47,1,1,0.4805087475979235,19,Male,2019-06-06,3,13,3,3,261,6
23,immediate,37,1,1,0.6036042832383828,19,Male,2019-06-06,3,13,4,4,262,6
23,immediate,58,2,2,0.5664913828750286,19,Male,2019-06-06,3,13,5,5,263,6
23,immediate,11,1,1,1.115816538223953,19,Male,2019-06-06,3,13,6,6,264,6
23,immediate,43,1,1,0.5422662932596722,19,Male,2019-06-06,3,13,7,7,265,6
23,immediate,9,1,1,0.5785536861221772,19,Male,2019-06-06,3,13,8,8,266,6
23,immediate,15,1,1,0.5519454460118141,19,Male,2019-06-06,3,13,9,9,267,6
23,immediate,16,2,2,0.6847315740233171,19,Male,2019-06-06,3,13,10,10,268,6
23,immediate,50,2,2,0.644618711379735,19,Male,2019-06-06,3,13,11,11,269,6
23,immediate,14,2,2,0.782849169576366,19,Male,2019-06-06,3,13,12,12,270,6
23,immediate,37,1,1,0.991815726936693,19,Male,2019-06-06,4,14,0,0,271,4
23,immediate,24,2,2,0.7030878309069521,19,Male,2019-06-06,4,14,1,1,272,4
23,immediate,39,1,1,0.6153914173191879,19,Male,2019-06-06,4,14,2,2,273,4
23,immediate,62,1,1,0.6858421444158012,19,Male,2019-06-06,4,14,3,3,274,4
23,immediate,48,2,1,0.5975876630218409,19,Male,2019-06-06,4,14,4,4,275,4
23,immediate,21,1,1,0.9914493500127719,19,Male,2019-06-06,4,14,5,5,276,4
23,immediate,14,1,2,1.8997830801254167,19,Male,2019-06-06,4,14,6,6,277,4
23,immediate,54,1,1,0.46477216302264424,19,Male,2019-06-06,4,14,7,7,278,4
23,immediate,49,2,2,1.3448741549364058,19,Male,2019-06-06,4,14,8,8,279,4
23,immediate,20,1,1,1.000363594315786,19,Male,2019-06-06,4,14,9,9,280,4
23,immediate,6,1,1,0.725822987693391,19,Male,2019-06-06,4,14,10,10,281,4
23,immediate,50,2,2,1.102844940010982,19,Male,2019-06-06,4,14,11,11,282,4
23,immediate,31,1,1,0.6725233383658633,19,Male,2019-06-06,4,14,12,12,283,4
23,immediate,30,1,1,0.7760868099976506,19,Male,2019-06-06,4,14,13,13,284,4
23,immediate,38,1,1,0.48227044862323964,19,Male,2019-06-06,4,14,14,14,285,4
23,immediate,47,1,1,0.645399697128596,19,Male,2019-06-06,4,14,15,15,286,4
23,immediate,44,1,1,0.47648942268278915,19,Male,2019-06-06,4,14,16,16,287,4
23,immediate,25,2,2,0.3835344953931781,19,Male,2019-06-06,4,14,17,17,288,4
23,immediate,5,1,1,0.36805978529264394,19,Male,2019-06-06,4,14,18,18,289,4
23,immediate,8,2,2,0.5335171504593745,19,Male,2019-06-06,0,15,0,0,290,1
23,immediate,62,1,2,0.6341279641746951,19,Male,2019-06-06,0,15,1,1,291,1
23,immediate,17,2,1,1.9048520672004088,19,Male,2019-06-06,0,15,2,2,292,1
23,immediate,63,1,1,1.6699636467528762,19,Male,2019-06-06,0,15,3,3,293,1
23,immediate,34,1,1,0.8468340396011627,19,Male,2019-06-06,0,15,4,4,294,1
23,immediate,48,1,1,0.4910495817748597,19,Male,2019-06-06,0,15,5,5,295,1
23,immediate,1,2,2,0.5902898056938284,19,Male,2019-06-06,0,15,6,6,296,1
23,immediate,56,1,1,0.8519954711482569,19,Male,2019-06-06,0,15,7,7,297,1
23,immediate,57,1,1,0.8920245463250467,19,Male,2019-06-06,0,15,8,8,298,1
23,immediate,60,1,1,0.6645774421867827,19,Male,2019-06-06,0,15,9,9,299,1
23,immediate,9,2,2,0.7841718366507848,19,Male,2019-06-06,0,15,10,10,300,1
23,immediate,2,2,2,0.98693812156489,19,Male,2019-06-06,0,15,11,11,301,1
23,immediate,55,1,1,0.6013117221446009,19,Male,2019-06-06,0,15,12,12,302,1
23,immediate,26,2,2,1.1033569401679415,19,Male,2019-06-06,0,15,13,13,303,1
23,immediate,3,2,2,0.6412551547837211,19,Male,2019-06-06,0,15,14,14,304,1
23,immediate,49,2,2,1.7491969079655973,19,Male,2019-06-06,1,16,0,0,305,3
23,immediate,57,1,2,0.3904851448842237,19,Male,2019-06-06,1,16,1,1,306,3
23,immediate,20,2,2,1.047175434876408,19,Male,2019-06-06,1,16,2,2,307,3
23,immediate,39,2,2,0.5997219245527958,19,Male,2019-06-06,1,16,3,3,308,3
23,immediate,53,2,2,0.6057648249698104,19,Male,2019-06-06,1,16,4,4,309,3
23,immediate,56,1,1,0.6375187285084394,19,Male,2019-06-06,1,16,5,5,310,3
23,immediate,43,1,1,0.4203790285228024,19,Male,2019-06-06,1,16,6,6,311,3
23,immediate,58,1,1,0.5657901652684814,19,Male,2019-06-06,1,16,7,7,312,3
23,immediate,14,1,1,0.5232066545177076,19,Male,2019-06-06,1,16,8,8,313,3
23,immediate,60,1,1,0.9028099409661081,19,Male,2019-06-06,1,16,9,9,314,3
23,immediate,35,2,2,0.6440074648126028,19,Male,2019-06-06,1,16,10,10,315,3
23,immediate,62,1,1,0.6509268872432585,19,Male,2019-06-06,1,16,11,11,316,3
23,immediate,11,1,1,0.6101610388905101,19,Male,2019-06-06,1,16,12,12,317,3
23,immediate,41,1,1,0.6162224900399451,19,Male,2019-06-06,1,16,13,13,318,3
23,immediate,62,1,1,1.0296230429739808,19,Male,2019-06-06,2,17,0,0,319,2
23,immediate,32,2,2,1.0135262650510413,19,Male,2019-06-06,2,17,1,1,320,2
23,immediate,38,2,2,1.4293328477160685,19,Male,2019-06-06,2,17,2,2,321,2
23,immediate,11,2,1,1.8552226798765332,19,Male,2019-06-06,2,17,3,3,322,2
23,immediate,47,2,2,0.9327941048268258,19,Male,2019-06-06,2,17,4,4,323,2
23,immediate,30,1,1,1.8745151302846352,19,Male,2019-06-06,2,17,5,5,324,2
23,immediate,8,2,1,0.7587431138144893,19,Male,2019-06-06,2,17,6,6,325,2
23,immediate,2,2,1,1.8564801102147612,19,Male,2019-06-06,2,17,7,7,326,2
23,immediate,20,1,1,0.7563630551067035,19,Male,2019-06-06,2,17,8,8,327,2
23,immediate,31,1,1,1.2257392002284178,19,Male,2019-06-06,2,17,9,9,328,2
23,immediate,45,2,1,0.6708785069386067,19,Male,2019-06-06,2,17,10,10,329,2
23,immediate,17,1,2,0.6781497748870606,19,Male,2019-06-06,2,17,11,11,330,2
23,immediate,12,2,1,2.237929194334356,19,Male,2019-06-06,2,17,12,12,331,2
23,immediate,42,2,1,1.8992732442184206,19,Male,2019-06-06,2,17,13,13,332,2
23,immediate,56,1,2,2.192242146393255,19,Male,2019-06-06,2,17,14,14,333,2
23,immediate,36,2,2,2.6045126506705856,19,Male,2019-06-06,2,17,15,15,334,2
23,immediate,15,2,2,0.578176487939345,19,Male,2019-06-06,2,17,16,16,335,2
23,immediate,55,1,1,0.4075549086173851,19,Male,2019-06-06,2,17,17,17,336,2
23,immediate,44,2,2,1.7846683778680017,19,Male,2019-06-06,2,17,18,18,337,2
23,immediate,19,1,1,0.5550662972182181,19,Male,2019-06-06,2,17,19,19,338,2
23,immediate,1,2,2,0.9601558137692336,19,Male,2019-06-06,2,17,20,20,339,2
23,immediate,54,1,2,0.7347700049522246,19,Male,2019-06-06,2,17,21,21,340,2
23,immediate,9,2,2,0.7203900971253461,19,Male,2019-06-06,2,17,22,22,341,2
23,immediate,46,2,2,0.6015126883903577,19,Male,2019-06-06,2,17,23,23,342,2
23,immediate,21,1,1,0.7839350056619878,19,Male,2019-06-06,2,17,24,24,343,2
23,immediate,6,2,2,0.698114998451274,19,Male,2019-06-06,2,17,25,25,344,2
23,immediate,52,1,1,0.4853102949746244,19,Male,2019-06-06,2,17,26,26,345,2
23,immediate,43,2,2,0.7283016744513588,19,Male,2019-06-06,2,17,27,27,346,2
23,immediate,29,1,1,0.6575244545001624,19,Male,2019-06-06,2,17,28,28,347,2
23,immediate,13,2,2,0.9045138255514757,19,Male,2019-06-06,2,17,29,29,348,2
23,immediate,37,2,2,0.5496145467404858,19,Male,2019-06-06,2,17,30,30,349,2
23,immediate,14,2,2,1.018671928479307,19,Male,2019-06-06,2,17,31,31,350,2
23,immediate,53,1,1,0.3786850252945442,19,Male,2019-06-06,2,17,32,32,351,2
23,immediate,24,1,1,0.6353921964491747,19,Male,2019-06-06,2,17,33,33,352,2
23,immediate,20,2,2,1.2354161887287773,19,Male,2019-06-06,3,18,0,0,353,6
23,immediate,22,2,2,0.6163223548046517,19,Male,2019-06-06,3,18,1,1,354,6
23,immediate,33,1,2,0.862683165274575,19,Male,2019-06-06,3,18,2,2,355,6
23,immediate,11,1,2,0.906985710371373,19,Male,2019-06-06,3,18,3,3,356,6
23,immediate,17,1,1,1.5605035162916465,19,Male,2019-06-06,3,18,4,4,357,6
23,immediate,24,2,1,0.7249721275275078,19,Male,2019-06-06,3,18,5,5,358,6
23,immediate,39,1,1,0.926100382948789,19,Male,2019-06-06,3,18,6,6,359,6
23,immediate,0,2,2,0.5243060944721947,19,Male,2019-06-06,3,18,7,7,360,6
23,immediate,60,2,2,0.8713145109377365,19,Male,2019-06-06,3,18,8,8,361,6
23,immediate,31,1,1,0.4620164520238177,19,Male,2019-06-06,3,18,9,9,362,6
23,immediate,44,2,2,0.6567629470191605,19,Male,2019-06-06,3,18,10,10,363,6
23,immediate,32,2,2,1.1919394603082765,19,Male,2019-06-06,3,18,11,11,364,6
23,immediate,5,1,1,0.9081621358582197,19,Male,2019-06-06,3,18,12,12,365,6
23,immediate,14,2,2,0.6335621668986278,19,Male,2019-06-06,3,18,13,13,366,6
23,immediate,21,1,1,0.8483038758040493,19,Male,2019-06-06,3,18,14,14,367,6
23,immediate,6,2,2,0.8443176330256392,19,Male,2019-06-06,3,18,15,15,368,6
23,immediate,38,2,2,1.5522345282279275,19,Male,2019-06-06,3,18,16,16,369,6
23,immediate,27,1,1,0.6848131972365081,19,Male,2019-06-06,3,18,17,17,370,6
23,immediate,20,1,1,1.8946235036510188,19,Male,2019-06-06,4,19,0,0,371,4
23,immediate,55,1,1,0.6832688489321299,19,Male,2019-06-06,4,19,1,1,372,4
23,immediate,63,1,1,0.49904494656402676,19,Male,2019-06-06,4,19,2,2,373,4
23,immediate,41,2,2,0.63055911282936,19,Male,2019-06-06,4,19,3,3,374,4
23,immediate,36,1,2,0.6055610761159187,19,Male,2019-06-06,4,19,4,4,375,4
23,immediate,22,1,2,1.1805861041430035,19,Male,2019-06-06,4,19,5,5,376,4
23,immediate,21,1,2,2.2084273494656372,19,Male,2019-06-06,4,19,6,6,377,4
23,immediate,4,1,1,4.109011511964127,19,Male,2019-06-06,4,19,7,7,378,4
23,immediate,46,1,2,1.4545596767729876,19,Male,2019-06-06,4,19,8,8,379,4
23,immediate,15,1,2,0.7607407182968018,19,Male,2019-06-06,4,19,9,9,380,4
23,immediate,58,2,2,0.41865690238773823,19,Male,2019-06-06,4,19,10,10,381,4
23,immediate,2,2,2,0.9641167038826097,19,Male,2019-06-06,4,19,11,11,382,4
23,immediate,13,1,1,0.5947809375156794,19,Male,2019-06-06,4,19,12,12,383,4
23,immediate,0,2,2,0.536329441183625,19,Male,2019-06-06,4,19,13,13,384,4
23,immediate,6,1,1,1.148969166830284,19,Male,2019-06-06,4,19,14,14,385,4
23,immediate,18,2,2,0.3840396936157049,19,Male,2019-06-06,4,19,15,15,386,4
23,immediate,16,2,2,0.4968021632612363,19,Male,2019-06-06,4,19,16,16,387,4
23,immediate,1,2,2,1.1242762896308705,19,Male,2019-06-06,4,19,17,17,388,4
23,immediate,17,2,2,0.5985071608920407,19,Male,2019-06-06,4,19,18,18,389,4
23,immediate,32,2,2,0.6200077665725985,19,Male,2019-06-06,4,19,19,19,390,4
23,immediate,8,2,2,0.7225095180710923,19,Male,2019-06-06,4,19,20,20,391,4
23,immediate,29,1,1,0.7157320087280823,19,Male,2019-06-06,4,19,21,21,392,4
23,immediate,58,1,1,1.9725056533352472,19,Male,2019-06-06,0,20,0,0,393,1
23,immediate,28,2,2,1.0673914024791884,19,Male,2019-06-06,0,20,1,1,394,1
23,immediate,56,1,1,0.5088344761607004,19,Male,2019-06-06,0,20,2,2,395,1
23,immediate,32,1,1,0.6564179034339759,19,Male,2019-06-06,0,20,3,3,396,1
23,immediate,44,1,1,0.5835701127944048,19,Male,2019-06-06,0,20,4,4,397,1
23,immediate,13,2,2,1.4210449997426622,19,Male,2019-06-06,0,20,5,5,398,1
23,immediate,2,2,2,0.5988787938567839,19,Male,2019-06-06,0,20,6,6,399,1
23,immediate,0,2,2,0.5565880754675163,19,Male,2019-06-06,0,20,7,7,400,1
23,immediate,42,1,2,0.6613375571268989,19,Male,2019-06-06,0,20,8,8,401,1
23,immediate,49,1,1,0.5889541531068971,19,Male,2019-06-06,0,20,9,9,402,1
23,immediate,4,2,2,0.5145694344555523,19,Male,2019-06-06,0,20,10,10,403,1
23,immediate,43,1,1,1.0783406619029847,19,Male,2019-06-06,0,20,11,11,404,1
23,immediate,11,2,2,0.5995982530148467,19,Male,2019-06-06,0,20,12,12,405,1
23,immediate,3,2,2,0.7335741012029757,19,Male,2019-06-06,0,20,13,13,406,1
23,immediate,16,2,2,0.9645538827608107,19,Male,2019-06-06,0,20,14,14,407,1
23,immediate,61,1,1,0.6234563473481103,19,Male,2019-06-06,0,20,15,15,408,1
23,immediate,19,2,2,0.917851182330196,19,Male,2019-06-06,0,20,16,16,409,1
23,immediate,18,2,2,0.6594119913152099,19,Male,2019-06-06,0,20,17,17,410,1
23,immediate,48,1,1,0.6508533026790246,19,Male,2019-06-06,0,20,18,18,411,1
23,immediate,52,1,1,0.6579285512434581,19,Male,2019-06-06,0,20,19,19,412,1
23,immediate,45,1,1,0.5530872434665071,19,Male,2019-06-06,0,20,20,20,413,1
23,immediate,47,1,1,0.6832787426574214,19,Male,2019-06-06,1,21,0,0,414,3
23,immediate,22,2,2,1.571142050981507,19,Male,2019-06-06,1,21,1,1,415,3
23,immediate,50,2,2,1.5202437936986826,19,Male,2019-06-06,1,21,2,2,416,3
23,immediate,2,2,2,0.7485507241890446,19,Male,2019-06-06,1,21,3,3,417,3
23,immediate,60,1,1,0.7542365230492578,19,Male,2019-06-06,1,21,4,4,418,3
23,immediate,16,2,2,1.5477239181363984,19,Male,2019-06-06,1,21,5,5,419,3
23,immediate,0,2,2,0.6321544756428921,19,Male,2019-06-06,1,21,6,6,420,3
23,immediate,55,2,2,0.9269197068733774,19,Male,2019-06-06,1,21,7,7,421,3
23,immediate,48,2,2,0.5918118931203935,19,Male,2019-06-06,1,21,8,8,422,3
23,immediate,40,1,1,0.7895367078763229,19,Male,2019-06-06,1,21,9,9,423,3
23,immediate,25,1,1,0.9281604415555194,19,Male,2019-06-06,1,21,10,10,424,3
23,immediate,53,2,2,0.711599833537548,19,Male,2019-06-06,1,21,11,11,425,3
23,immediate,2,2,2,0.6448413201451331,19,Male,2019-06-06,2,22,0,0,426,2
23,immediate,53,1,1,0.6040414621184027,19,Male,2019-06-06,2,22,1,1,427,2
23,immediate,17,1,1,0.48204598478696425,19,Male,2019-06-06,2,22,2,2,428,2
23,immediate,8,2,2,0.8086084045935422,19,Male,2019-06-06,2,22,3,3,429,2
23,immediate,28,1,1,0.6435378221576684,19,Male,2019-06-06,2,22,4,4,430,2
23,immediate,19,1,1,0.4907818328974827,19,Male,2019-06-06,2,22,5,5,431,2
23,immediate,14,2,2,0.5726610466208513,19,Male,2019-06-06,2,22,6,6,432,2
23,immediate,51,1,1,0.43404318733701075,19,Male,2019-06-06,2,22,7,7,433,2
23,immediate,18,1,1,0.5799573580534343,19,Male,2019-06-06,2,22,8,8,434,2
23,immediate,47,2,2,1.7701753105848184,19,Male,2019-06-06,2,22,9,9,435,2
23,immediate,26,1,1,1.1163956301897997,19,Male,2019-06-06,2,22,10,10,436,2
23,immediate,43,2,2,0.8466092665839824,19,Male,2019-06-06,2,22,11,11,437,2
