sub_num,condition,stim_id,cat,resp,rt,age,gender,date,prob_num,num_problems_solved,current_trial_prob,current_trial_stim,current_trial_exp,relevant_dim
20,delay,49,2,1,3.3057394396146265,20,Female,2019-06-04,0,0,0,0,0,5
20,delay,56,2,1,0.6966409275373735,20,Female,2019-06-04,0,0,1,1,1,5
20,delay,24,2,2,1.264963710144002,20,Female,2019-06-04,0,0,2,2,2,5
20,delay,32,2,2,1.5106012753622053,20,Female,2019-06-04,0,0,3,3,3,5
20,delay,18,1,2,1.0102195942035905,20,Female,2019-06-04,0,0,4,4,4,5
20,delay,36,2,1,1.3945501062789845,20,Female,2019-06-04,0,0,5,5,5,5
20,delay,27,1,1,1.4352340096611442,20,Female,2019-06-04,0,0,6,6,6,5
20,delay,62,1,2,1.5888525603859307,20,Female,2019-06-04,0,0,7,7,7,5
20,delay,44,2,2,1.1008578164255596,20,Female,2019-06-04,0,0,8,8,8,5
20,delay,7,1,2,1.6629568309181195,20,Female,2019-06-04,0,0,9,9,9,5
20,delay,5,2,1,1.1823146666665707,20,Female,2019-06-04,0,0,10,10,10,5
20,delay,4,2,2,1.401168077294642,20,Female,2019-06-04,0,0,11,11,11,5
20,delay,54,1,1,1.9381027246381564,20,Female,2019-06-04,0,0,12,12,12,5
20,delay,22,1,1,1.207740289855792,20,Female,2019-06-04,0,0,13,13,13,5
20,delay,42,1,2,0.812373024155022,20,Female,2019-06-04,0,0,14,14,14,5
20,delay,52,2,1,1.3513899903373385,20,Female,2019-06-04,0,0,15,15,15,5
20,delay,34,1,2,1.33782384540973,20,Female,2019-06-04,0,0,16,16,16,5
20,delay,53,2,1,1.1054002705313906,20,Female,2019-06-04,0,0,17,17,17,5
20,delay,25,2,1,2.8516155362303834,20,Female,2019-06-04,0,0,18,18,18,5
20,delay,55,1,2,0.774563246375692,20,Female,2019-06-04,0,0,19,19,19,5
20,delay,15,1,2,1.4087324444444675,20,Female,2019-06-04,0,0,20,20,20,5
20,delay,47,1,2,0.9867285024156445,20,Female,2019-06-04,0,0,21,21,21,5
20,delay,38,1,2,0.8094302608697035,20,Female,2019-06-04,0,0,22,22,22,5
20,delay,57,2,1,1.268557294686616,20,Female,2019-06-04,0,0,23,23,23,5
20,delay,11,1,2,0.83117171014419,20,Female,2019-06-04,0,0,24,24,24,5
20,delay,29,2,2,1.0346765603862877,20,Female,2019-06-04,0,0,25,25,25,5
20,delay,48,2,2,3.023774917874107,20,Female,2019-06-04,0,0,26,26,26,5
20,delay,0,2,1,2.2155176811593265,20,Female,2019-06-04,0,0,27,27,27,5
20,delay,31,1,2,1.04418875362353,20,Female,2019-06-04,0,0,28,28,28,5
20,delay,12,2,2,0.9643897198075138,20,Female,2019-06-04,0,0,29,29,29,5
20,delay,35,1,1,1.1550389178755722,20,Female,2019-06-04,0,0,30,30,30,5
20,delay,28,2,2,0.7422005797088786,20,Female,2019-06-04,0,0,31,31,31,5
20,delay,30,1,2,0.735665159420023,20,Female,2019-06-04,0,0,32,32,32,5
20,delay,63,1,2,0.915814028985551,20,Female,2019-06-04,0,0,33,33,33,5
20,delay,39,1,2,1.3042974299532943,20,Female,2019-06-04,0,0,34,34,34,5
20,delay,58,1,1,1.7270727729464852,20,Female,2019-06-04,0,0,35,35,35,5
20,delay,59,1,2,1.1840151497581246,20,Female,2019-06-04,0,0,36,36,36,5
20,delay,3,1,1,1.4916102801926172,20,Female,2019-06-04,0,0,37,37,37,5
20,delay,1,2,1,0.5911630531390983,20,Female,2019-06-04,0,0,38,38,38,5
20,delay,8,2,2,0.9007768115952786,20,Female,2019-06-04,0,0,39,39,39,5
20,delay,41,2,2,1.0577344927532977,20,Female,2019-06-04,0,0,40,40,40,5
20,delay,10,1,1,0.7867974492764915,20,Female,2019-06-04,0,0,41,41,41,5
20,delay,50,1,1,0.7978295652173983,20,Female,2019-06-04,0,0,42,42,42,5
20,delay,51,1,1,0.9523561739133584,20,Female,2019-06-04,0,0,43,43,43,5
20,delay,21,2,2,0.7000527149757545,20,Female,2019-06-04,0,0,44,44,44,5
20,delay,33,2,2,0.5804280579723127,20,Female,2019-06-04,0,0,45,45,45,5
20,delay,13,2,2,0.5381036521739588,20,Female,2019-06-04,0,0,46,46,46,5
20,delay,61,2,2,0.5266161159433977,20,Female,2019-06-04,0,0,47,47,47,5
20,delay,45,2,2,0.4669028792268364,20,Female,2019-06-04,0,0,48,48,48,5
20,delay,43,1,1,0.6295466666670109,20,Female,2019-06-04,0,0,49,49,49,5
20,delay,20,2,2,0.76434210628031,20,Female,2019-06-04,0,0,50,50,50,5
20,delay,44,1,2,1.9401519613511482,20,Female,2019-06-04,1,1,0,0,51,3
20,delay,13,1,1,0.7667898743948172,20,Female,2019-06-04,1,1,1,1,52,3
20,delay,36,2,1,0.5203465893719113,20,Female,2019-06-04,1,1,2,2,53,3
20,delay,54,2,2,1.7345749951691687,20,Female,2019-06-04,1,1,3,3,54,3
20,delay,48,2,2,0.5516073429935204,20,Female,2019-06-04,1,1,4,4,55,3
20,delay,57,1,1,0.5724688695645455,20,Female,2019-06-04,1,1,5,5,56,3
20,delay,11,1,1,0.48184332367054594,20,Female,2019-06-04,1,1,6,6,57,3
20,delay,27,1,1,0.47666365217264683,20,Female,2019-06-04,1,1,7,7,58,3
20,delay,2,2,2,0.8955124251206144,20,Female,2019-06-04,1,1,8,8,59,3
20,delay,33,2,2,0.7009131594204518,20,Female,2019-06-04,1,1,9,9,60,3
20,delay,1,2,2,0.9171509178740962,20,Female,2019-06-04,1,1,10,10,61,3
20,delay,31,1,1,0.7065228985520662,20,Female,2019-06-04,1,1,11,11,62,3
20,delay,32,2,2,0.8112769855069928,20,Female,2019-06-04,1,1,12,12,63,3
20,delay,56,1,1,0.6461916135249339,20,Female,2019-06-04,1,1,13,13,64,3
20,delay,43,1,1,0.6587139710136398,20,Female,2019-06-04,1,1,14,14,65,3
20,delay,57,1,2,1.482415304348251,20,Female,2019-06-04,2,2,0,0,66,1
20,delay,42,1,2,0.773183072464235,20,Female,2019-06-04,2,2,1,1,67,1
20,delay,17,2,2,2.1589404444439424,20,Female,2019-06-04,2,2,2,2,68,1
20,delay,40,1,1,0.5704622995162936,20,Female,2019-06-04,2,2,3,3,69,1
20,delay,34,1,1,0.5918231497598754,20,Female,2019-06-04,2,2,4,4,70,1
20,delay,3,2,2,0.5975791304354061,20,Female,2019-06-04,2,2,5,5,71,1
20,delay,29,2,2,0.7796254299519205,20,Female,2019-06-04,2,2,6,6,72,1
20,delay,12,2,1,0.7654529855080909,20,Female,2019-06-04,2,2,7,7,73,1
20,delay,7,2,2,1.8470474202913465,20,Female,2019-06-04,2,2,8,8,74,1
20,delay,25,2,2,0.7949699710134155,20,Female,2019-06-04,2,2,9,9,75,1
20,delay,21,2,2,0.9381908405794093,20,Female,2019-06-04,2,2,10,10,76,1
20,delay,13,2,2,0.7759526956524496,20,Female,2019-06-04,2,2,11,11,77,1
20,delay,27,2,2,0.978186202899451,20,Female,2019-06-04,2,2,12,12,78,1
20,delay,63,1,2,3.0571482898540125,20,Female,2019-06-04,2,2,13,13,79,1
20,delay,35,1,2,1.2258303381640872,20,Female,2019-06-04,2,2,14,14,80,1
20,delay,26,2,2,0.5903276521730731,20,Female,2019-06-04,2,2,15,15,81,1
20,delay,36,1,1,1.012298202898819,20,Female,2019-06-04,2,2,16,16,82,1
20,delay,48,1,1,0.617678840579174,20,Female,2019-06-04,2,2,17,17,83,1
20,delay,16,2,2,0.9409530434768385,20,Female,2019-06-04,2,2,18,18,84,1
20,delay,37,1,1,0.6829198840569006,20,Female,2019-06-04,2,2,19,19,85,1
20,delay,47,1,1,0.6279166763270041,20,Female,2019-06-04,2,2,20,20,86,1
20,delay,61,1,1,0.6499759613525384,20,Female,2019-06-04,2,2,21,21,87,1
20,delay,46,1,1,0.7369306280197634,20,Female,2019-06-04,2,2,22,22,88,1
20,delay,39,1,1,0.698682743961399,20,Female,2019-06-04,2,2,23,23,89,1
20,delay,11,2,2,0.7440395748781157,20,Female,2019-06-04,2,2,24,24,90,1
20,delay,49,1,1,1.4046015072453883,20,Female,2019-06-04,2,2,25,25,91,1
20,delay,32,1,1,0.50207567149846,20,Female,2019-06-04,2,2,26,26,92,1
20,delay,7,1,2,1.766677024153978,20,Female,2019-06-04,3,3,0,0,93,4
20,delay,25,2,2,0.984712347824825,20,Female,2019-06-04,3,3,1,1,94,4
20,delay,48,2,2,0.9836537198061706,20,Female,2019-06-04,3,3,2,2,95,4
20,delay,30,1,2,0.6623656811607361,20,Female,2019-06-04,3,3,3,3,96,4
20,delay,5,1,1,0.7339411787434074,20,Female,2019-06-04,3,3,4,4,97,4
20,delay,34,2,2,0.6949577584546205,20,Female,2019-06-04,3,3,5,5,98,4
20,delay,46,1,1,0.6035348405803234,20,Female,2019-06-04,3,3,6,6,99,4
20,delay,56,2,2,0.6908125990339613,20,Female,2019-06-04,3,3,7,7,100,4
20,delay,3,2,2,0.7312451400957798,20,Female,2019-06-04,3,3,8,8,101,4
20,delay,27,2,2,0.580628405798052,20,Female,2019-06-04,3,3,9,9,102,4
20,delay,54,1,1,0.7937097584544972,20,Female,2019-06-04,3,3,10,10,103,4
20,delay,33,2,2,0.6123383961366926,20,Female,2019-06-04,3,3,11,11,104,4
20,delay,12,1,1,0.650685526570669,20,Female,2019-06-04,3,3,12,12,105,4
20,delay,43,2,2,0.6098430144938902,20,Female,2019-06-04,3,3,13,13,106,4
20,delay,1,2,2,0.9040742028992099,20,Female,2019-06-04,3,3,14,14,107,4
20,delay,44,1,1,0.9649737584531977,20,Female,2019-06-04,3,3,15,15,108,4
20,delay,30,1,2,1.4326059903378336,20,Female,2019-06-04,4,4,0,0,109,2
20,delay,37,2,2,1.0904007729477598,20,Female,2019-06-04,4,4,1,1,110,2
20,delay,41,2,2,0.9803139710147661,20,Female,2019-06-04,4,4,2,2,111,2
20,delay,28,1,1,0.6111205410616094,20,Female,2019-06-04,4,4,3,3,112,2
20,delay,50,1,1,2.8409804057973815,20,Female,2019-06-04,4,4,4,4,113,2
20,delay,13,2,2,0.670626318840732,20,Female,2019-06-04,4,4,5,5,114,2
20,delay,20,1,1,0.6620342415462801,20,Female,2019-06-04,4,4,6,6,115,2
20,delay,6,2,2,0.7653194202903251,20,Female,2019-06-04,4,4,7,7,116,2
20,delay,26,1,1,0.8394323478260048,20,Female,2019-06-04,4,4,8,8,117,2
20,delay,29,1,1,0.6591418743955728,20,Female,2019-06-04,4,4,9,9,118,2
20,delay,47,2,2,0.8265559806768579,20,Female,2019-06-04,4,4,10,10,119,2
20,delay,39,2,2,0.6600304541061632,20,Female,2019-06-04,4,4,11,11,120,2
20,delay,62,1,1,0.6837484830921312,20,Female,2019-06-04,4,4,12,12,121,2
20,delay,20,2,2,3.3844164637685026,20,Female,2019-06-04,0,5,0,0,122,5
20,delay,18,1,2,0.4462021256040316,20,Female,2019-06-04,0,5,1,1,123,5
20,delay,37,2,1,0.7680788405796193,20,Female,2019-06-04,0,5,2,2,124,5
20,delay,1,2,1,0.9711907246364717,20,Female,2019-06-04,0,5,3,3,125,5
20,delay,17,2,2,2.5061713623181276,20,Female,2019-06-04,0,5,4,4,126,5
20,delay,24,2,2,2.477678067632951,20,Female,2019-06-04,0,5,5,5,127,5
20,delay,5,2,1,0.9928112850229809,20,Female,2019-06-04,0,5,6,6,128,5
20,delay,51,1,2,1.359920850241906,20,Female,2019-06-04,0,5,7,7,129,5
20,delay,54,1,1,2.887916521740408,20,Female,2019-06-04,0,5,8,8,130,5
20,delay,26,1,1,1.1689114589371457,20,Female,2019-06-04,0,5,9,9,131,5
20,delay,55,1,1,1.1881890628010296,20,Female,2019-06-04,0,5,10,10,132,5
20,delay,12,2,2,0.7598924057965633,20,Female,2019-06-04,0,5,11,11,133,5
20,delay,35,1,1,0.7380022415454732,20,Female,2019-06-04,0,5,12,12,134,5
20,delay,46,1,1,0.7310608695643168,20,Female,2019-06-04,0,5,13,13,135,5
20,delay,19,1,1,0.659841236714783,20,Female,2019-06-04,0,5,14,14,136,5
20,delay,43,1,1,0.5995192270529515,20,Female,2019-06-04,0,5,15,15,137,5
20,delay,23,1,1,0.8132603671492689,20,Female,2019-06-04,0,5,16,16,138,5
20,delay,45,2,2,0.7766622608687612,20,Female,2019-06-04,0,5,17,17,139,5
20,delay,62,1,1,0.7385559806753008,20,Female,2019-06-04,0,5,18,18,140,5
20,delay,42,1,1,0.6362144154591078,20,Female,2019-06-04,0,5,19,19,141,5
20,delay,9,1,2,2.2642819710144977,20,Female,2019-06-04,1,6,0,0,142,3
20,delay,27,1,1,0.9822200579710625,20,Female,2019-06-04,1,6,1,1,143,3
20,delay,0,2,1,2.021158956520594,20,Female,2019-06-04,1,6,2,2,144,3
20,delay,5,2,2,0.9892764444448403,20,Female,2019-06-04,1,6,3,3,145,3
20,delay,62,1,1,0.9246825120771973,20,Female,2019-06-04,1,6,4,4,146,3
20,delay,21,2,2,0.6504196328496619,20,Female,2019-06-04,1,6,5,5,147,3
20,delay,22,2,2,0.6696412753626646,20,Female,2019-06-04,1,6,6,6,148,3
20,delay,20,2,2,0.6290767149766907,20,Female,2019-06-04,1,6,7,7,149,3
20,delay,7,2,2,0.7799939710148465,20,Female,2019-06-04,1,6,8,8,150,3
20,delay,13,1,1,0.5661733719807671,20,Female,2019-06-04,1,6,9,9,151,3
20,delay,28,1,1,0.5553864347821218,20,Female,2019-06-04,1,6,10,10,152,3
20,delay,18,2,2,0.6881793236716476,20,Female,2019-06-04,1,6,11,11,153,3
20,delay,34,2,2,0.7602999033824744,20,Female,2019-06-04,1,6,12,12,154,3
20,delay,41,1,1,0.6754362125611806,20,Female,2019-06-04,1,6,13,13,155,3
20,delay,61,1,1,0.585779942030058,20,Female,2019-06-04,1,6,14,14,156,3
20,delay,19,2,2,1.1893475555552868,20,Female,2019-06-04,2,7,0,0,157,1
20,delay,56,1,2,1.0808805410633795,20,Female,2019-06-04,2,7,1,1,158,1
20,delay,60,1,1,0.954116946859358,20,Female,2019-06-04,2,7,2,2,159,1
20,delay,13,2,2,0.7927237874391722,20,Female,2019-06-04,2,7,3,3,160,1
20,delay,50,1,1,0.6114640386476822,20,Female,2019-06-04,2,7,4,4,161,1
20,delay,24,2,1,0.6498433236720302,20,Female,2019-06-04,2,7,5,5,162,1
20,delay,9,2,2,1.7928520966179349,20,Female,2019-06-04,2,7,6,6,163,1
20,delay,18,2,1,0.5794198260864505,20,Female,2019-06-04,2,7,7,7,164,1
20,delay,57,1,2,2.5685354975848895,20,Female,2019-06-04,2,7,8,8,165,1
20,delay,34,1,1,1.0055952077291295,20,Female,2019-06-04,2,7,9,9,166,1
20,delay,44,1,1,0.7011175265706697,20,Female,2019-06-04,2,7,10,10,167,1
20,delay,8,2,2,0.6894441739132162,20,Female,2019-06-04,2,7,11,11,168,1
20,delay,47,1,1,0.8416639999995823,20,Female,2019-06-04,2,7,12,12,169,1
20,delay,12,2,2,0.6933404444444022,20,Female,2019-06-04,2,7,13,13,170,1
20,delay,35,1,1,0.5418508985512744,20,Female,2019-06-04,2,7,14,14,171,1
20,delay,0,2,2,0.7058040579704539,20,Female,2019-06-04,2,7,15,15,172,1
20,delay,61,1,1,1.1304505507250724,20,Female,2019-06-04,2,7,16,16,173,1
20,delay,15,2,2,0.6053243671503878,20,Female,2019-06-04,2,7,17,17,174,1
20,delay,7,2,2,1.0433437681149371,20,Female,2019-06-04,2,7,18,18,175,1
20,delay,49,1,1,0.6758585507250245,20,Female,2019-06-04,2,7,19,19,176,1
20,delay,39,1,1,0.5396402705300716,20,Female,2019-06-04,2,7,20,20,177,1
20,delay,51,2,2,3.257996367150554,20,Female,2019-06-04,3,8,0,0,178,4
20,delay,52,1,1,1.0950035169080365,20,Female,2019-06-04,3,8,1,1,179,4
20,delay,12,1,1,0.7926808115935273,20,Female,2019-06-04,3,8,2,2,180,4
20,delay,30,1,1,1.2996207922697067,20,Female,2019-06-04,3,8,3,3,181,4
20,delay,54,1,1,0.6604574299508386,20,Female,2019-06-04,3,8,4,4,182,4
20,delay,56,2,1,1.2276421256046888,20,Female,2019-06-04,3,8,5,5,183,4
20,delay,34,2,2,0.7371448888898158,20,Female,2019-06-04,3,8,6,6,184,4
20,delay,13,1,1,0.5696355555555783,20,Female,2019-06-04,3,8,7,7,185,4
20,delay,0,2,2,0.5589750724629994,20,Female,2019-06-04,3,8,8,8,186,4
20,delay,48,2,2,0.5159101835743058,20,Female,2019-06-04,3,8,9,9,187,4
20,delay,24,2,2,0.48766114009595185,20,Female,2019-06-04,3,8,10,10,188,4
20,delay,3,2,2,0.5229783188406145,20,Female,2019-06-04,3,8,11,11,189,4
20,delay,32,2,2,0.4994080772958114,20,Female,2019-06-04,3,8,12,12,190,4
20,delay,62,1,1,0.6307036135276576,20,Female,2019-06-04,3,8,13,13,191,4
20,delay,21,1,1,0.5255862415451702,20,Female,2019-06-04,3,8,14,14,192,4
20,delay,47,1,1,0.5457725217383995,20,Female,2019-06-04,3,8,15,15,193,4
20,delay,40,2,2,0.8702534492749692,20,Female,2019-06-04,3,8,16,16,194,4
20,delay,2,2,2,0.56257762318819,20,Female,2019-06-04,3,8,17,17,195,4
20,delay,20,1,1,2.415735652175499,20,Female,2019-06-04,4,9,0,0,196,2
20,delay,19,1,2,1.3348650048301351,20,Female,2019-06-04,4,9,1,1,197,2
20,delay,57,1,2,0.7827107246375817,20,Female,2019-06-04,4,9,2,2,198,2
20,delay,2,2,2,1.4968768309172447,20,Female,2019-06-04,4,9,3,3,199,2
20,delay,0,2,2,0.8838879227059806,20,Female,2019-06-04,4,9,4,4,200,2
20,delay,29,1,1,0.7090300289855804,20,Female,2019-06-04,4,9,5,5,201,2
20,delay,61,1,1,0.5575581062803394,20,Female,2019-06-04,4,9,6,6,202,2
20,delay,35,2,2,1.026747362318929,20,Female,2019-06-04,4,9,7,7,203,2
20,delay,16,1,1,0.530662028984807,20,Female,2019-06-04,4,9,8,8,204,2
20,delay,7,2,2,1.6242835169068712,20,Female,2019-06-04,4,9,9,9,205,2
20,delay,6,2,2,0.5503449661828199,20,Female,2019-06-04,4,9,10,10,206,2
20,delay,39,2,2,0.524390956521529,20,Female,2019-06-04,4,9,11,11,207,2
20,delay,37,2,2,0.5125531207741005,20,Female,2019-06-04,4,9,12,12,208,2
20,delay,38,2,2,0.45239621256041573,20,Female,2019-06-04,4,9,13,13,209,2
20,delay,52,1,1,0.7586618743971485,20,Female,2019-06-04,4,9,14,14,210,2
20,delay,57,2,2,2.1634881545887765,20,Female,2019-06-04,0,10,0,0,211,5
20,delay,2,1,1,0.91092313043373,20,Female,2019-06-04,0,10,1,1,212,5
20,delay,17,2,2,2.465433043478697,20,Female,2019-06-04,0,10,2,2,213,5
20,delay,29,2,2,0.8036074975843803,20,Female,2019-06-04,0,10,3,3,214,5
20,delay,10,1,1,0.9585140869567113,20,Female,2019-06-04,0,10,4,4,215,5
20,delay,35,1,2,0.8129703574886662,20,Female,2019-06-04,0,10,5,5,216,5
20,delay,14,1,1,2.295700405797106,20,Female,2019-06-04,0,10,6,6,217,5
20,delay,42,1,1,1.9583174492763646,20,Female,2019-06-04,0,10,7,7,218,5
20,delay,4,2,2,1.2026011207726697,20,Female,2019-06-04,0,10,8,8,219,5
20,delay,21,2,1,0.8868399613529618,20,Female,2019-06-04,0,10,9,9,220,5
20,delay,22,1,1,1.9876177004844067,20,Female,2019-06-04,0,10,10,10,221,5
20,delay,55,1,1,0.7787504541065573,20,Female,2019-06-04,0,10,11,11,222,5
20,delay,12,2,2,1.1409765410626278,20,Female,2019-06-04,0,10,12,12,223,5
20,delay,44,2,2,0.7008043285022723,20,Female,2019-06-04,0,10,13,13,224,5
20,delay,38,1,1,0.8209437681161944,20,Female,2019-06-04,0,10,14,14,225,5
20,delay,63,1,1,0.6724192463752843,20,Female,2019-06-04,0,10,15,15,226,5
20,delay,56,2,2,0.6478005797107471,20,Female,2019-06-04,0,10,16,16,227,5
20,delay,43,1,1,0.6550684444446233,20,Female,2019-06-04,0,10,17,17,228,5
20,delay,39,1,1,0.5982070724639925,20,Female,2019-06-04,0,10,18,18,229,5
20,delay,50,1,1,0.8761683478260238,20,Female,2019-06-04,0,10,19,19,230,5
20,delay,18,1,1,0.5842850628014276,20,Female,2019-06-04,0,10,20,20,231,5
20,delay,37,2,2,0.8455905700484436,20,Female,2019-06-04,0,10,21,21,232,5
20,delay,13,1,2,1.9298544541052252,20,Female,2019-06-04,1,11,0,0,233,3
20,delay,40,1,2,2.4636493913039885,20,Female,2019-06-04,1,11,1,1,234,3
20,delay,5,2,2,0.6260841739131138,20,Female,2019-06-04,1,11,2,2,235,3
20,delay,8,1,1,0.5524971594204544,20,Female,2019-06-04,1,11,3,3,236,3
20,delay,6,2,2,0.535334647342097,20,Female,2019-06-04,1,11,4,4,237,3
20,delay,50,2,2,0.6037753816417535,20,Female,2019-06-04,1,11,5,5,238,3
20,delay,39,2,2,0.6842400772948167,20,Female,2019-06-04,1,11,6,6,239,3
20,delay,54,2,2,0.5315836908212077,20,Female,2019-06-04,1,11,7,7,240,3
20,delay,14,1,1,0.6158865314009745,20,Female,2019-06-04,1,11,8,8,241,3
20,delay,41,1,1,0.6542794202887308,20,Female,2019-06-04,1,11,9,9,242,3
20,delay,59,1,1,0.5453807922694978,20,Female,2019-06-04,1,11,10,10,243,3
20,delay,34,2,2,0.6293682705309038,20,Female,2019-06-04,1,11,11,11,244,3
20,delay,3,2,2,0.5950107826083695,20,Female,2019-06-04,1,11,12,12,245,3
20,delay,55,2,2,0.9847621256049024,20,Female,2019-06-04,1,11,13,13,246,3
20,delay,63,1,2,2.3192694106292038,20,Female,2019-06-04,2,12,0,0,247,1
20,delay,19,2,1,1.2782355169074435,20,Female,2019-06-04,2,12,1,1,248,1
20,delay,45,1,1,1.6844138357500924,20,Female,2019-06-04,2,12,2,2,249,1
20,delay,24,2,2,0.8202864541071904,20,Female,2019-06-04,2,12,3,3,250,1
20,delay,42,1,1,0.5278314975857938,20,Female,2019-06-04,2,12,4,4,251,1
20,delay,12,2,2,0.7234881545900862,20,Female,2019-06-04,2,12,5,5,252,1
20,delay,47,1,1,0.5089459323680785,20,Female,2019-06-04,2,12,6,6,253,1
20,delay,11,2,2,0.6724424347830791,20,Female,2019-06-04,2,12,7,7,254,1
20,delay,3,2,2,0.5344772946846206,20,Female,2019-06-04,2,12,8,8,255,1
20,delay,2,2,2,0.554991922705085,20,Female,2019-06-04,2,12,9,9,256,1
20,delay,26,2,2,1.0079582608705095,20,Female,2019-06-04,2,12,10,10,257,1
20,delay,56,1,1,0.8583862415471231,20,Female,2019-06-04,2,12,11,11,258,1
20,delay,58,1,1,0.4870582415460376,20,Female,2019-06-04,2,12,12,12,259,1
20,delay,44,1,1,0.5219094879230397,20,Female,2019-06-04,2,12,13,13,260,1
20,delay,38,1,1,1.3786567729475792,20,Female,2019-06-04,3,13,0,0,261,4
20,delay,51,2,2,1.7232726570036903,20,Female,2019-06-04,3,13,1,1,262,4
20,delay,21,1,2,1.596326956521807,20,Female,2019-06-04,3,13,2,2,263,4
20,delay,20,1,1,0.922104888888498,20,Female,2019-06-04,3,13,3,3,264,4
20,delay,60,1,1,1.0476580483082216,20,Female,2019-06-04,3,13,4,4,265,4
20,delay,36,1,1,0.7440751304347941,20,Female,2019-06-04,3,13,5,5,266,4
20,delay,37,1,1,0.8654070724642224,20,Female,2019-06-04,3,13,6,6,267,4
20,delay,33,2,2,0.6876747439600877,20,Female,2019-06-04,3,13,7,7,268,4
20,delay,48,2,2,0.6635980676328472,20,Female,2019-06-04,3,13,8,8,269,4
20,delay,19,2,2,0.5591704734306404,20,Female,2019-06-04,3,13,9,9,270,4
20,delay,31,1,1,0.644018086955839,20,Female,2019-06-04,3,13,10,10,271,4
20,delay,32,2,2,0.6194773333336343,20,Female,2019-06-04,3,13,11,11,272,4
20,delay,43,2,2,0.4815486763291119,20,Female,2019-06-04,3,13,12,12,273,4
20,delay,24,2,2,0.644502570048644,20,Female,2019-06-04,3,13,13,13,274,4
20,delay,59,2,2,0.6197327149748162,20,Female,2019-06-04,3,13,14,14,275,4
20,delay,32,2,1,1.9626966570049262,20,Female,2019-06-04,4,14,0,0,276,2
20,delay,51,1,1,2.2409930821249873,20,Female,2019-06-04,4,14,1,1,277,2
20,delay,58,1,1,1.2157962512083031,20,Female,2019-06-04,4,14,2,2,278,2
20,delay,2,2,2,0.9163337584541296,20,Female,2019-06-04,4,14,3,3,279,2
20,delay,40,2,2,0.6742907053139788,20,Female,2019-06-04,4,14,4,4,280,2
20,delay,16,1,1,0.5857561352659104,20,Female,2019-06-04,4,14,5,5,281,2
20,delay,24,1,1,0.6234478067635791,20,Female,2019-06-04,4,14,6,6,282,2
20,delay,45,2,2,0.6617191884051863,20,Female,2019-06-04,4,14,7,7,283,2
20,delay,13,2,2,0.6053339516911365,20,Female,2019-06-04,4,14,8,8,284,2
20,delay,60,1,1,0.558284676328185,20,Female,2019-06-04,4,14,9,9,285,2
20,delay,1,2,2,0.6273153236725193,20,Female,2019-06-04,4,14,10,10,286,2
20,delay,15,2,2,0.6339005217396334,20,Female,2019-06-04,4,14,11,11,287,2
20,delay,39,2,2,0.9924752077295125,20,Female,2019-06-04,4,14,12,12,288,2
20,delay,4,2,1,1.9038382995167922,20,Female,2019-06-04,0,15,0,0,289,5
20,delay,54,1,2,1.2686219130446261,20,Female,2019-06-04,0,15,1,1,290,5
20,delay,5,2,1,1.290762202897895,20,Female,2019-06-04,0,15,2,2,291,5
20,delay,31,1,2,0.4971952850246453,20,Female,2019-06-04,0,15,3,3,292,5
20,delay,8,2,1,1.9405767729476793,20,Female,2019-06-04,0,15,4,4,293,5
20,delay,61,2,2,2.682816309177724,20,Female,2019-06-04,0,15,5,5,294,5
20,delay,35,1,2,0.5624929082132439,20,Female,2019-06-04,0,15,6,6,295,5
20,delay,19,1,1,1.973544502416189,20,Female,2019-06-04,0,15,7,7,296,5
20,delay,53,2,1,1.6766410821255704,20,Female,2019-06-04,0,15,8,8,297,5
20,delay,2,1,1,0.6042048309191159,20,Female,2019-06-04,0,15,9,9,298,5
20,delay,57,2,1,0.6430212946852407,20,Female,2019-06-04,0,15,10,10,299,5
20,delay,32,2,2,0.8422449468598643,20,Female,2019-06-04,0,15,11,11,300,5
20,delay,48,2,2,0.6939158260865952,20,Female,2019-06-04,0,15,12,12,301,5
20,delay,12,2,2,1.006166260869577,20,Female,2019-06-04,0,15,13,13,302,5
20,delay,56,2,2,1.0058496618366917,20,Female,2019-06-04,0,15,14,14,303,5
20,delay,11,1,1,0.7498255458940548,20,Female,2019-06-04,0,15,15,15,304,5
20,delay,23,1,1,1.0629240579710313,20,Female,2019-06-04,0,15,16,16,305,5
20,delay,59,1,1,0.8832256618352403,20,Female,2019-06-04,0,15,17,17,306,5
20,delay,44,2,2,0.8414209855054651,20,Female,2019-06-04,0,15,18,18,307,5
20,delay,16,2,2,1.3652430531401478,20,Female,2019-06-04,0,15,19,19,308,5
20,delay,0,2,2,0.7813991884067946,20,Female,2019-06-04,0,15,20,20,309,5
20,delay,10,1,1,1.1276951497584378,20,Female,2019-06-04,0,15,21,21,310,5
20,delay,28,2,2,0.7462888502413989,20,Female,2019-06-04,0,15,22,22,311,5
20,delay,60,1,2,1.9792655458950321,20,Female,2019-06-04,1,16,0,0,312,3
20,delay,15,1,1,1.1381521932380565,20,Female,2019-06-04,1,16,1,1,313,3
20,delay,7,2,2,0.6928179323676886,20,Female,2019-06-04,1,16,2,2,314,3
20,delay,25,1,1,0.877822763284712,20,Female,2019-06-04,1,16,3,3,315,3
20,delay,2,2,2,1.0021837294698344,20,Female,2019-06-04,1,16,4,4,316,3
20,delay,37,2,2,1.0655115748795652,20,Female,2019-06-04,1,16,5,5,317,3
20,delay,58,1,1,1.2748864927543764,20,Female,2019-06-04,1,16,6,6,318,3
20,delay,49,2,2,1.162103961352841,20,Female,2019-06-04,1,16,7,7,319,3
20,delay,1,2,2,0.6325889855070272,20,Female,2019-06-04,1,16,8,8,320,3
20,delay,27,1,1,0.8634128695648542,20,Female,2019-06-04,1,16,9,9,321,3
20,delay,55,2,2,0.7476956135269575,20,Female,2019-06-04,1,16,10,10,322,3
20,delay,34,2,2,0.5493525024139672,20,Female,2019-06-04,1,16,11,11,323,3
20,delay,29,1,1,0.5700980869569321,20,Female,2019-06-04,1,16,12,12,324,3
20,delay,32,1,2,1.700977777778462,20,Female,2019-06-04,2,17,0,0,325,1
20,delay,22,2,1,2.6133215845420636,20,Female,2019-06-04,2,17,1,1,326,1
20,delay,56,1,1,1.7873861256048258,20,Female,2019-06-04,2,17,2,2,327,1
20,delay,51,1,1,2.302054647343539,20,Female,2019-06-04,2,17,3,3,328,1
20,delay,40,1,1,2.046129468599247,20,Female,2019-06-04,2,17,4,4,329,1
20,delay,16,2,2,1.1592554975832172,20,Female,2019-06-04,2,17,5,5,330,1
20,delay,42,1,1,0.7942449468591803,20,Female,2019-06-04,2,17,6,6,331,1
20,delay,15,2,2,0.6125749178754631,20,Female,2019-06-04,2,17,7,7,332,1
20,delay,19,2,2,0.6323029951690842,20,Female,2019-06-04,2,17,8,8,333,1
20,delay,5,2,2,0.575196135265287,20,Female,2019-06-04,2,17,9,9,334,1
20,delay,45,1,1,0.932441971013759,20,Female,2019-06-04,2,17,10,10,335,1
20,delay,33,1,1,0.4982706086957478,20,Female,2019-06-04,2,17,11,11,336,1
20,delay,46,1,1,0.6297624734306737,20,Female,2019-06-04,2,17,12,12,337,1
20,delay,63,1,1,0.764557294685801,20,Female,2019-06-04,2,17,13,13,338,1
20,delay,37,1,1,1.5838685990347585,20,Female,2019-06-04,3,18,0,0,339,4
20,delay,54,1,1,2.2534322705323575,20,Female,2019-06-04,3,18,1,1,340,4
20,delay,63,1,1,1.6601055845403607,20,Female,2019-06-04,3,18,2,2,341,4
20,delay,33,2,2,0.8432429758468061,20,Female,2019-06-04,3,18,3,3,342,4
20,delay,18,2,2,0.6467908019330935,20,Female,2019-06-04,3,18,4,4,343,4
20,delay,41,2,2,0.618942763283485,20,Female,2019-06-04,3,18,5,5,344,4
20,delay,61,1,1,0.5612815458935074,20,Female,2019-06-04,3,18,6,6,345,4
20,delay,28,1,1,1.0461526570052229,20,Female,2019-06-04,3,18,7,7,346,4
20,delay,9,2,2,0.6625988019331999,20,Female,2019-06-04,3,18,8,8,347,4
20,delay,0,2,2,0.8141501835743838,20,Female,2019-06-04,3,18,9,9,348,4
20,delay,29,1,1,0.8345293913043861,20,Female,2019-06-04,3,18,10,10,349,4
20,delay,35,2,2,0.6221501835734671,20,Female,2019-06-04,3,18,11,11,350,4
20,delay,47,2,1,1.4034176618351921,20,Female,2019-06-04,4,19,0,0,351,2
20,delay,52,1,2,1.4924453719813755,20,Female,2019-06-04,4,19,1,1,352,2
20,delay,18,1,2,2.0211298937192623,20,Female,2019-06-04,4,19,2,2,353,2
20,delay,29,1,1,0.8292693333332863,20,Female,2019-06-04,4,19,3,3,354,2
20,delay,62,1,1,0.5364786086956883,20,Female,2019-06-04,4,19,4,4,355,2
20,delay,33,2,2,0.588846067632403,20,Female,2019-06-04,4,19,5,5,356,2
20,delay,48,1,1,0.6262718454108835,20,Female,2019-06-04,4,19,6,6,357,2
20,delay,37,2,2,0.6166505120781949,20,Female,2019-06-04,4,19,7,7,358,2
20,delay,3,2,2,0.5433575265706168,20,Female,2019-06-04,4,19,8,8,359,2
20,delay,6,2,2,0.4515620483089151,20,Female,2019-06-04,4,19,9,9,360,2
20,delay,56,1,1,0.8225082125591143,20,Female,2019-06-04,4,19,10,10,361,2
20,delay,43,2,2,0.6736599806754384,20,Female,2019-06-04,4,19,11,11,362,2
20,delay,7,2,2,0.6174055265692004,20,Female,2019-06-04,4,19,12,12,363,2
20,delay,15,2,2,1.2319505314007984,20,Female,2019-06-04,4,19,13,13,364,2
20,delay,38,2,2,0.5646583961352007,20,Female,2019-06-04,4,19,14,14,365,2
20,delay,60,2,1,1.7129627826088836,20,Female,2019-06-04,0,20,0,0,366,5
20,delay,49,2,1,1.5671274975848064,20,Female,2019-06-04,0,20,1,1,367,5
20,delay,54,1,2,1.5323325217395904,20,Female,2019-06-04,0,20,2,2,368,5
20,delay,35,1,2,1.672309487921666,20,Female,2019-06-04,0,20,3,3,369,5
20,delay,21,2,2,2.0720055652163865,20,Female,2019-06-04,0,20,4,4,370,5
20,delay,38,1,2,0.6729266086967982,20,Female,2019-06-04,0,20,5,5,371,5
20,delay,19,1,1,0.6986580096618127,20,Female,2019-06-04,0,20,6,6,372,5
20,delay,3,1,1,0.5468481545885879,20,Female,2019-06-04,0,20,7,7,373,5
20,delay,26,1,1,0.5513794782600598,20,Female,2019-06-04,0,20,8,8,374,5
20,delay,44,2,2,0.6362614106274123,20,Female,2019-06-04,0,20,9,9,375,5
20,delay,0,2,2,0.5152955362318608,20,Female,2019-06-04,0,20,10,10,376,5
20,delay,6,1,1,0.9188269758451497,20,Female,2019-06-04,0,20,11,11,377,5
20,delay,62,1,1,0.5656279806771636,20,Female,2019-06-04,0,20,12,12,378,5
20,delay,56,2,2,0.8906787246378371,20,Female,2019-06-04,0,20,13,13,379,5
20,delay,55,1,1,0.5834929468601331,20,Female,2019-06-04,0,20,14,14,380,5
20,delay,36,2,2,1.0212640772952,20,Female,2019-06-04,0,20,15,15,381,5
20,delay,58,1,1,0.6210513623191218,20,Female,2019-06-04,0,20,16,16,382,5
20,delay,20,2,2,0.7718152656998427,20,Female,2019-06-04,0,20,17,17,383,5
20,delay,61,1,2,2.146768386472104,20,Female,2019-06-04,1,21,0,0,384,3
20,delay,39,2,2,2.333692599033384,20,Female,2019-06-04,1,21,1,1,385,3
20,delay,33,2,2,0.8930838260857854,20,Female,2019-06-04,1,21,2,2,386,3
20,delay,32,2,2,0.656715748791612,20,Female,2019-06-04,1,21,3,3,387,3
20,delay,38,2,2,0.5358908599027927,20,Female,2019-06-04,1,21,4,4,388,3
20,delay,44,1,1,0.6203315942020708,20,Female,2019-06-04,1,21,5,5,389,3
20,delay,54,2,2,0.7487298164251115,20,Female,2019-06-04,1,21,6,6,390,3
20,delay,10,1,1,1.2861792463772872,20,Female,2019-06-04,1,21,7,7,391,3
20,delay,16,2,2,0.5566333526567178,20,Female,2019-06-04,1,21,8,8,392,3
20,delay,15,1,1,0.5935533140091138,20,Female,2019-06-04,1,21,9,9,393,3
20,delay,48,2,2,0.7390379903390567,20,Female,2019-06-04,1,21,10,10,394,3
20,delay,20,2,2,1.7407248695653834,20,Female,2019-06-04,1,21,11,11,395,3
20,delay,19,2,2,0.6217865893722774,20,Female,2019-06-04,1,21,12,12,396,3
20,delay,26,2,1,1.8960927536245435,20,Female,2019-06-04,2,22,0,0,397,1
20,delay,1,2,1,2.2372322318842635,20,Female,2019-06-04,2,22,1,1,398,1
20,delay,57,1,2,0.9889811787452345,20,Female,2019-06-04,2,22,2,2,399,1
20,delay,61,1,1,0.8763467439621309,20,Female,2019-06-04,2,22,3,3,400,1
20,delay,12,2,2,0.6327877874391561,20,Female,2019-06-04,2,22,4,4,401,1
20,delay,49,1,1,0.6556008502411714,20,Female,2019-06-04,2,22,5,5,402,1
20,delay,18,2,2,0.6307063961357926,20,Female,2019-06-04,2,22,6,6,403,1
20,delay,11,2,2,0.5573939323676314,20,Female,2019-06-04,2,22,7,7,404,1
20,delay,63,1,1,1.0602481159403396,20,Female,2019-06-04,2,22,8,8,405,1
20,delay,30,2,2,1.0449947826091375,20,Female,2019-06-04,2,22,9,9,406,1
20,delay,43,1,1,0.6135083285025758,20,Female,2019-06-04,2,22,10,10,407,1
20,delay,52,1,1,0.443945429951782,20,Female,2019-06-04,2,22,11,11,408,1
20,delay,39,1,1,0.6064547246387519,20,Female,2019-06-04,2,22,12,12,409,1
20,delay,8,2,2,0.6656695652181952,20,Female,2019-06-04,2,22,13,13,410,1
20,delay,16,2,2,0.5128879613530444,20,Female,2019-06-04,2,22,14,14,411,1
20,delay,61,1,1,1.292830608694203,20,Female,2019-06-04,3,23,0,0,412,4
20,delay,5,1,1,1.1070562318855082,20,Female,2019-06-04,3,23,1,1,413,4
20,delay,35,2,1,1.2689787053150212,20,Female,2019-06-04,3,23,2,2,414,4
20,delay,57,2,2,0.8428923671490338,20,Female,2019-06-04,3,23,3,3,415,4
20,delay,13,1,1,0.5504618357499567,20,Female,2019-06-04,3,23,4,4,416,4
20,delay,40,2,2,0.5554077681154013,20,Female,2019-06-04,3,23,5,5,417,4
20,delay,56,2,2,0.6030574685992178,20,Female,2019-06-04,3,23,6,6,418,4
20,delay,42,2,2,0.4490073043471057,20,Female,2019-06-04,3,23,7,7,419,4
20,delay,7,1,1,0.5504012367146061,20,Female,2019-06-04,3,23,8,8,420,4
20,delay,62,1,1,0.6672871884056804,20,Female,2019-06-04,3,23,9,9,421,4
20,delay,54,1,1,0.5307393236726057,20,Female,2019-06-04,3,23,10,10,422,4
20,delay,50,2,2,0.5669259130427236,20,Female,2019-06-04,3,23,11,11,423,4
20,delay,20,1,1,0.7481773140098085,20,Female,2019-06-04,3,23,12,12,424,4
20,delay,15,1,1,0.5016375652157876,20,Female,2019-06-04,3,23,13,13,425,4
20,delay,45,1,1,0.8568953816429712,20,Female,2019-06-04,3,23,14,14,426,4
20,delay,45,2,1,1.6388866473444068,20,Female,2019-06-04,4,24,0,0,427,2
20,delay,17,1,1,2.0215377004824404,20,Female,2019-06-04,4,24,1,1,428,2
20,delay,50,1,1,0.7497065120787738,20,Female,2019-06-04,4,24,2,2,429,2
20,delay,30,1,1,1.2548909758443187,20,Female,2019-06-04,4,24,3,3,430,2
20,delay,21,1,1,0.6046401545881963,20,Female,2019-06-04,4,24,4,4,431,2
20,delay,49,1,1,0.5804008502418583,20,Female,2019-06-04,4,24,5,5,432,2
20,delay,27,1,1,0.587959033817242,20,Female,2019-06-04,4,24,6,6,433,2
20,delay,23,1,1,0.46573665700452693,20,Female,2019-06-04,4,24,7,7,434,2
20,delay,32,2,2,0.6763962125587568,20,Female,2019-06-04,4,24,8,8,435,2
20,delay,29,1,1,0.7643331400959141,20,Female,2019-06-04,4,24,9,9,436,2
20,delay,36,2,2,0.8536644637679274,20,Female,2019-06-04,4,24,10,10,437,2
20,delay,18,1,1,0.6744415845423646,20,Female,2019-06-04,4,24,11,11,438,2
20,delay,62,1,1,0.7296970821262221,20,Female,2019-06-04,4,24,12,12,439,2
20,delay,35,1,1,1.5015577971007588,20,Female,2019-06-04,0,25,0,0,440,5
20,delay,21,2,1,2.824920115941495,20,Female,2019-06-04,0,25,1,1,441,5
20,delay,26,1,2,1.9149999613528053,20,Female,2019-06-04,0,25,2,2,442,5
20,delay,9,2,1,0.7505431497593236,20,Female,2019-06-04,0,25,3,3,443,5
20,delay,17,2,1,1.8641422222226538,20,Female,2019-06-04,0,25,4,4,444,5
20,delay,37,2,1,1.1162243091785058,20,Female,2019-06-04,0,25,5,5,445,5
20,delay,53,2,1,1.854535729467898,20,Female,2019-06-04,0,25,6,6,446,5
20,delay,41,2,1,1.794512386473798,20,Female,2019-06-04,0,25,7,7,447,5
20,delay,33,2,1,1.0768689468586672,20,Female,2019-06-04,0,25,8,8,448,5
