sub_num,condition,stim_id,cat,resp,rt,age,gender,date,prob_num,num_problems_solved,current_trial_prob,current_trial_stim,current_trial_exp,relevant_dim
16,delay,33,2,1,1.1212161217918037,36,Male,2019-06-04,0,0,0,0,0,5
16,delay,9,2,1,1.5245595755604882,36,Male,2019-06-04,0,0,1,1,1,5
16,delay,54,1,1,6.255605401964203,36,Male,2019-06-04,0,0,2,2,2,5
16,delay,55,1,1,0.6806899622188212,36,Male,2019-06-04,0,0,3,3,3,5
16,delay,59,1,1,0.6404256766381877,36,Male,2019-06-04,0,0,4,4,4,5
16,delay,32,2,1,0.9514386064729479,36,Male,2019-06-04,0,0,5,5,5,5
16,delay,38,1,2,2.314895590498054,36,Male,2019-06-04,0,0,6,6,6,5
16,delay,20,2,1,2.250087806627562,36,Male,2019-06-04,0,0,7,7,7,5
16,delay,41,2,1,2.766728708438677,36,Male,2019-06-04,0,0,8,8,8,5
16,delay,10,1,1,1.4961884503372858,36,Male,2019-06-04,0,0,9,9,9,5
16,delay,48,2,2,1.6194782307593414,36,Male,2019-06-04,0,0,10,10,10,5
16,delay,30,1,1,1.377714739764997,36,Male,2019-06-04,0,0,11,11,11,5
16,delay,7,1,2,0.9865000401932775,36,Male,2019-06-04,0,0,12,12,12,5
16,delay,23,1,1,7.561741353829348,36,Male,2019-06-04,0,0,13,13,13,5
16,delay,11,1,2,2.068053537308515,36,Male,2019-06-04,0,0,14,14,14,5
16,delay,31,1,2,1.3891530988930754,36,Male,2019-06-04,0,0,15,15,15,5
16,delay,24,2,1,5.2378087917932135,36,Male,2019-06-04,0,0,16,16,16,5
16,delay,13,2,1,0.402626469369352,36,Male,2019-06-04,0,0,17,17,17,5
16,delay,21,2,1,10.35584377840496,36,Male,2019-06-04,0,0,18,18,18,5
16,delay,56,2,1,0.9949770898892893,36,Male,2019-06-04,0,0,19,19,19,5
16,delay,29,2,1,0.5630436126866698,36,Male,2019-06-04,0,0,20,20,20,5
16,delay,42,1,1,1.6553095183608093,36,Male,2019-06-04,0,0,21,21,21,5
16,delay,17,2,2,1.1053481656454096,36,Male,2019-06-04,0,0,22,22,22,5
16,delay,40,2,2,4.371319387331823,36,Male,2019-06-04,0,0,23,23,23,5
16,delay,60,2,2,0.49101126027380815,36,Male,2019-06-04,0,0,24,24,24,5
16,delay,35,1,2,1.4383198634677683,36,Male,2019-06-04,0,0,25,25,25,5
16,delay,34,1,1,1.3360730650074402,36,Male,2019-06-04,0,0,26,26,26,5
16,delay,19,1,2,3.2908198789264134,36,Male,2019-06-04,0,0,27,27,27,5
16,delay,0,2,2,0.585381433225848,36,Male,2019-06-04,0,0,28,28,28,5
16,delay,5,2,2,2.1431795274511387,36,Male,2019-06-04,0,0,29,29,29,5
16,delay,15,1,1,1.161922841472915,36,Male,2019-06-04,0,0,30,30,30,5
16,delay,43,1,1,4.797328699782156,36,Male,2019-06-04,0,0,31,31,31,5
16,delay,2,1,1,0.33525807109799644,36,Male,2019-06-04,0,0,32,32,32,5
16,delay,52,2,1,11.249468213381988,36,Male,2019-06-04,0,0,33,33,33,5
16,delay,61,2,2,0.5896511850787647,36,Male,2019-06-04,0,0,34,34,34,5
16,delay,14,1,1,3.9717550195091462,36,Male,2019-06-04,0,0,35,35,35,5
16,delay,44,2,2,1.745966769520237,36,Male,2019-06-04,0,0,36,36,36,5
16,delay,1,2,1,4.307085129143161,36,Male,2019-06-04,0,0,37,37,37,5
16,delay,47,1,1,0.4055005905302096,36,Male,2019-06-04,0,0,38,38,38,5
16,delay,62,1,2,13.302604826891184,36,Male,2019-06-04,0,0,39,39,39,5
16,delay,16,2,1,3.78986451808305,36,Male,2019-06-04,0,0,40,40,40,5
16,delay,45,2,2,1.5279293094808963,36,Male,2019-06-04,0,0,41,41,41,5
16,delay,8,2,1,2.1320027331366873,36,Male,2019-06-04,0,0,42,42,42,5
16,delay,53,2,2,3.3422717800622195,36,Male,2019-06-04,0,0,43,43,43,5
16,delay,18,1,1,5.405616532380009,36,Male,2019-06-04,0,0,44,44,44,5
16,delay,25,2,2,6.152373870725569,36,Male,2019-06-04,0,0,45,45,45,5
16,delay,50,1,2,0.8909265454276465,36,Male,2019-06-04,0,0,46,46,46,5
16,delay,49,2,2,2.543182000878005,36,Male,2019-06-04,0,0,47,47,47,5
16,delay,27,1,2,2.06710497838867,36,Male,2019-06-04,0,0,48,48,48,5
16,delay,58,1,2,1.6441930138080352,36,Male,2019-06-04,0,0,49,49,49,5
16,delay,3,1,1,3.9792127084620006,36,Male,2019-06-04,0,0,50,50,50,5
16,delay,46,1,1,2.53777880150119,36,Male,2019-06-04,0,0,51,51,51,5
16,delay,26,1,1,1.9502086953289108,36,Male,2019-06-04,0,0,52,52,52,5
16,delay,4,2,2,2.5164402451173373,36,Male,2019-06-04,0,0,53,53,53,5
16,delay,51,1,2,1.6501416036462615,36,Male,2019-06-04,0,0,54,54,54,5
16,delay,28,2,1,3.0572721819935396,36,Male,2019-06-04,0,0,55,55,55,5
16,delay,6,1,1,4.809719637147282,36,Male,2019-06-04,0,0,56,56,56,5
16,delay,63,1,1,1.7880057383481471,36,Male,2019-06-04,0,0,57,57,57,5
16,delay,57,2,2,2.258921338865548,36,Male,2019-06-04,0,0,58,58,58,5
16,delay,39,1,1,4.752715821889069,36,Male,2019-06-04,0,0,59,59,59,5
16,delay,37,2,1,0.7699899207891576,36,Male,2019-06-04,0,0,60,60,60,5
16,delay,12,2,2,1.1320973416859488,36,Male,2019-06-04,0,0,61,61,61,5
16,delay,36,2,1,1.0068019218524569,36,Male,2019-06-04,0,0,62,62,62,5
16,delay,22,1,1,2.0948311577503773,36,Male,2019-06-04,0,0,63,63,63,5
16,delay,1,2,2,3.0962589429800573,36,Male,2019-06-04,0,0,64,0,64,5
16,delay,22,1,2,3.8439728788816865,36,Male,2019-06-04,0,0,65,1,65,5
16,delay,23,1,2,0.8472347095885198,36,Male,2019-06-04,0,0,66,2,66,5
16,delay,40,2,1,1.1791626215836004,36,Male,2019-06-04,0,0,67,3,67,5
16,delay,8,2,1,1.2630454677546368,36,Male,2019-06-04,0,0,68,4,68,5
16,delay,35,1,2,0.8471880236702418,36,Male,2019-06-04,0,0,69,5,69,5
16,delay,56,2,2,0.6670394325956295,36,Male,2019-06-04,0,0,70,6,70,5
16,delay,46,1,2,1.1385835925266292,36,Male,2019-06-04,0,0,71,7,71,5
16,delay,26,1,2,0.42124054687519674,36,Male,2019-06-04,0,0,72,8,72,5
16,delay,42,1,1,2.583128142025089,36,Male,2019-06-04,0,0,73,9,73,5
16,delay,31,1,2,0.8168069305393146,36,Male,2019-06-04,0,0,74,10,74,5
16,delay,47,1,2,0.7322108101088816,36,Male,2019-06-04,0,0,75,11,75,5
16,delay,17,2,1,0.43697710225751507,36,Male,2019-06-04,0,0,76,12,76,5
16,delay,45,2,2,0.6150495612764644,36,Male,2019-06-04,0,0,77,13,77,5
16,delay,10,1,2,0.05483214711966866,36,Male,2019-06-04,0,0,78,14,78,5
16,delay,36,2,2,0.09639003456686623,36,Male,2019-06-04,0,0,79,15,79,5
16,delay,2,1,1,0.25867090447172814,36,Male,2019-06-04,0,0,80,16,80,5
16,delay,11,1,1,0.5763460075813782,36,Male,2019-06-04,0,0,81,17,81,5
16,delay,13,2,1,0.2454284901596111,36,Male,2019-06-04,0,0,82,18,82,5
16,delay,32,2,2,0.1469929321847303,36,Male,2019-06-04,0,0,83,19,83,5
16,delay,44,2,2,0.36600986897065013,36,Male,2019-06-04,0,0,84,20,84,5
16,delay,37,2,1,0.5424331711164996,36,Male,2019-06-04,0,0,85,21,85,5
16,delay,12,2,1,0.227085871170857,36,Male,2019-06-04,0,0,86,22,86,5
16,delay,48,2,1,0.03201881040513399,36,Male,2019-06-04,0,0,87,23,87,5
16,delay,49,2,1,0.07235049685004924,36,Male,2019-06-04,0,0,88,24,88,5
16,delay,7,1,2,0.038685621355398325,36,Male,2019-06-04,0,0,89,25,89,5
16,delay,50,1,1,0.06335062670586922,36,Male,2019-06-04,0,0,90,26,90,5
16,delay,15,1,1,0.15228235395989032,36,Male,2019-06-04,0,0,91,27,91,5
16,delay,60,2,1,0.051438606471492676,36,Male,2019-06-04,0,0,92,28,92,5
16,delay,29,2,1,0.1083604894902237,36,Male,2019-06-04,0,0,93,29,93,5
16,delay,20,2,1,0.10240138759218098,36,Male,2019-06-04,0,0,94,30,94,5
16,delay,52,2,2,0.16026471843179024,36,Male,2019-06-04,0,0,95,31,95,5
16,delay,53,2,2,0.18378978351211117,36,Male,2019-06-04,0,0,96,32,96,5
16,delay,5,2,2,0.163542626407434,36,Male,2019-06-04,0,0,97,33,97,5
16,delay,62,1,1,0.09508622981775261,36,Male,2019-06-04,0,0,98,34,98,5
16,delay,30,1,2,0.2808779426050023,36,Male,2019-06-04,0,0,99,35,99,5
16,delay,14,1,2,0.6150678027934191,36,Male,2019-06-04,0,0,100,36,100,5
16,delay,9,2,1,0.0934686091295589,36,Male,2019-06-04,0,0,101,37,101,5
16,delay,24,2,1,0.19908761493752536,36,Male,2019-06-04,0,0,102,38,102,5
16,delay,41,2,2,0.052918952009349596,36,Male,2019-06-04,0,0,103,39,103,5
16,delay,6,1,2,0.17389638817803643,36,Male,2019-06-04,0,0,104,40,104,5
16,delay,43,1,1,0.02598643325836747,36,Male,2019-06-04,0,0,105,41,105,5
16,delay,0,2,1,0.22611041374329943,36,Male,2019-06-04,0,0,106,42,106,5
16,delay,3,1,2,0.015217135896818945,36,Male,2019-06-04,0,0,107,43,107,5
16,delay,38,1,2,0.20412845738610486,36,Male,2019-06-04,0,0,108,44,108,5
16,delay,63,1,2,0.16824491865554592,36,Male,2019-06-04,0,0,109,45,109,5
16,delay,25,2,2,0.03593609903509787,36,Male,2019-06-04,0,0,110,46,110,5
16,delay,18,1,2,0.12447826167590392,36,Male,2019-06-04,0,0,111,47,111,5
16,delay,57,2,2,0.11888244423971628,36,Male,2019-06-04,0,0,112,48,112,5
16,delay,28,2,1,0.24132043853933283,36,Male,2019-06-04,0,0,113,49,113,5
16,delay,61,2,1,0.12679400688830356,36,Male,2019-06-04,0,0,114,50,114,5
16,delay,54,1,1,1.3696201435832336,36,Male,2019-06-04,0,0,115,51,115,5
16,delay,34,1,2,0.7538294820042211,36,Male,2019-06-04,0,0,116,52,116,5
16,delay,59,1,2,0.19897476486949017,36,Male,2019-06-04,0,0,117,53,117,5
16,delay,21,2,1,1.5713141313026426,36,Male,2019-06-04,0,0,118,54,118,5
16,delay,16,2,1,0.14125056425109506,36,Male,2019-06-04,0,0,119,55,119,5
16,delay,55,1,1,0.10438940384119633,36,Male,2019-06-04,0,0,120,56,120,5
16,delay,58,1,1,0.09855366407100519,36,Male,2019-06-04,0,0,121,57,121,5
16,delay,27,1,1,0.23625053333125834,36,Male,2019-06-04,0,0,122,58,122,5
16,delay,39,1,2,0.18569184820444207,36,Male,2019-06-04,0,0,123,59,123,5
16,delay,19,1,1,0.133754228012549,36,Male,2019-06-04,0,0,124,60,124,5
16,delay,4,2,2,0.2884126169465162,36,Male,2019-06-04,0,0,125,61,125,5
16,delay,33,2,2,0.35118137015524553,36,Male,2019-06-04,0,0,126,62,126,5
16,delay,51,1,1,0.27737557120599377,36,Male,2019-06-04,0,0,127,63,127,5
16,delay,28,2,2,0.275647573878814,36,Male,2019-06-04,0,0,128,0,128,5
16,delay,29,2,2,0.22572486844546802,36,Male,2019-06-04,0,0,129,1,129,5
16,delay,6,1,2,0.23899170783806767,36,Male,2019-06-04,0,0,130,2,130,5
16,delay,21,2,2,0.2203043550853181,36,Male,2019-06-04,0,0,131,3,131,5
16,delay,40,2,2,0.33988214124474325,36,Male,2019-06-04,0,0,132,4,132,5
16,delay,31,1,2,0.25943921246107493,36,Male,2019-06-04,0,0,133,5,133,5
16,delay,43,1,2,0.5290241097209218,36,Male,2019-06-04,0,0,134,6,134,5
16,delay,20,2,2,0.30915847859614587,36,Male,2019-06-04,0,0,135,7,135,5
16,delay,13,2,2,0.36909392217421555,36,Male,2019-06-04,0,0,136,8,136,5
16,delay,1,2,2,0.30547338284304715,36,Male,2019-06-04,0,0,137,9,137,5
16,delay,57,2,2,0.5924031808262953,36,Male,2019-06-04,0,0,138,10,138,5
16,delay,55,1,2,0.27773205374796817,36,Male,2019-06-04,0,0,139,11,139,5
16,delay,61,2,2,0.32391895819273486,36,Male,2019-06-04,0,0,140,12,140,5
16,delay,24,2,2,0.24305863875088107,36,Male,2019-06-04,0,0,141,13,141,5
16,delay,42,1,2,0.22456854173105967,36,Male,2019-06-04,0,0,142,14,142,5
16,delay,32,2,2,0.2537243613933242,36,Male,2019-06-04,0,0,143,15,143,5
16,delay,58,1,2,0.37939945213656756,36,Male,2019-06-04,0,0,144,16,144,5
16,delay,19,1,2,0.6201961426922935,36,Male,2019-06-04,0,0,145,17,145,5
16,delay,25,2,1,0.06663286317780148,36,Male,2019-06-04,0,0,146,18,146,5
16,delay,41,2,1,0.08054433925462945,36,Male,2019-06-04,0,0,147,19,147,5
16,delay,5,2,1,0.15441197385553096,36,Male,2019-06-04,0,0,148,20,148,5
16,delay,48,2,2,0.19760696022058255,36,Male,2019-06-04,0,0,149,21,149,5
16,delay,0,2,2,0.05022415424355131,36,Male,2019-06-04,1,0,0,0,150,6
16,delay,57,1,1,0.07516154564473254,36,Male,2019-06-04,1,0,1,1,151,6
16,delay,14,2,1,0.02038876075312146,36,Male,2019-06-04,1,0,2,2,152,6
16,delay,27,1,1,0.012759168681441224,36,Male,2019-06-04,1,0,3,3,153,6
16,delay,9,1,1,0.13283627774217166,36,Male,2019-06-04,1,0,4,4,154,6
16,delay,63,1,2,0.03145703349764517,36,Male,2019-06-04,1,0,5,5,155,6
16,delay,8,2,2,0.02366574119332654,36,Male,2019-06-04,1,0,6,6,156,6
16,delay,29,1,1,0.02130702020076569,36,Male,2019-06-04,1,0,7,7,157,6
16,delay,47,1,2,0.045666557423828635,36,Male,2019-06-04,1,0,8,8,158,6
16,delay,16,2,2,0.07007741823872493,36,Male,2019-06-04,1,0,9,9,159,6
16,delay,6,2,2,0.12750264347414486,36,Male,2019-06-04,1,0,10,10,160,6
16,delay,26,2,2,0.10635948775234283,36,Male,2019-06-04,1,0,11,11,161,6
16,delay,46,2,1,0.11650919187013642,36,Male,2019-06-04,1,0,12,12,162,6
16,delay,28,2,2,0.07909212894082884,36,Male,2019-06-04,1,0,13,13,163,6
16,delay,5,1,1,0.10430561653265613,36,Male,2019-06-04,1,0,14,14,164,6
16,delay,42,2,1,0.09048256543792377,36,Male,2019-06-04,1,0,15,15,165,6
16,delay,12,2,1,0.003993346483184723,36,Male,2019-06-04,1,0,16,16,166,6
16,delay,32,2,1,0.12404015607353358,36,Male,2019-06-04,1,0,17,17,167,6
16,delay,25,1,2,0.07691489558965259,36,Male,2019-06-04,1,0,18,18,168,6
16,delay,50,2,1,0.07058508894988336,36,Male,2019-06-04,1,0,19,19,169,6
16,delay,39,1,2,0.3037441488013428,36,Male,2019-06-04,1,0,20,20,170,6
16,delay,44,2,1,0.0784444004711986,36,Male,2019-06-04,1,0,21,21,171,6
16,delay,43,1,2,0.00790352401418204,36,Male,2019-06-04,1,0,22,22,172,6
16,delay,4,2,2,0.00738626877500792,36,Male,2019-06-04,1,0,23,23,173,6
16,delay,53,1,2,0.04764467996938038,36,Male,2019-06-04,1,0,24,24,174,6
16,delay,38,2,2,0.039772382959199604,36,Male,2019-06-04,1,0,25,25,175,6
16,delay,30,2,1,0.0006542212104250211,36,Male,2019-06-04,1,0,26,26,176,6
16,delay,15,1,1,0.08780106233643892,36,Male,2019-06-04,1,0,27,27,177,6
16,delay,24,2,1,0.0014234567370294826,36,Male,2019-06-04,1,0,28,28,178,6
16,delay,56,2,2,0.05698248195949418,36,Male,2019-06-04,1,0,29,29,179,6
16,delay,33,1,1,0.06597462264653586,36,Male,2019-06-04,1,0,30,30,180,6
16,delay,52,2,2,0.5072576506154292,36,Male,2019-06-04,1,0,31,31,181,6
16,delay,20,2,2,5.471214266723109,36,Male,2019-06-04,1,0,32,32,182,6
16,delay,45,1,2,0.017556687835167395,36,Male,2019-06-04,1,0,33,33,183,6
16,delay,19,1,2,0.854373017395119,36,Male,2019-06-04,1,0,34,34,184,6
16,delay,48,2,2,0.40477958681367454,36,Male,2019-06-04,1,0,35,35,185,6
16,delay,3,1,2,1.6060048602830648,36,Male,2019-06-04,1,0,36,36,186,6
16,delay,36,2,2,0.7400815612272709,36,Male,2019-06-04,1,0,37,37,187,6
16,delay,61,1,2,0.9408279175604548,36,Male,2019-06-04,1,0,38,38,188,6
16,delay,17,1,1,0.4751343379557511,36,Male,2019-06-04,1,0,39,39,189,6
16,delay,31,1,1,0.5902203822679439,36,Male,2019-06-04,1,0,40,40,190,6
16,delay,21,1,1,1.7639943358535675,36,Male,2019-06-04,1,0,41,41,191,6
16,delay,60,2,1,2.2615607937223103,36,Male,2019-06-04,1,0,42,42,192,6
16,delay,62,2,1,0.09911080330675759,36,Male,2019-06-04,1,0,43,43,193,6
16,delay,18,2,1,0.09317148881746107,36,Male,2019-06-04,1,0,44,44,194,6
16,delay,37,1,2,0.03870911890408024,36,Male,2019-06-04,1,0,45,45,195,6
16,delay,59,1,1,0.1912681874109694,36,Male,2019-06-04,1,0,46,46,196,6
16,delay,35,1,1,0.4651117061075638,36,Male,2019-06-04,1,0,47,47,197,6
16,delay,51,1,2,0.4402608846212388,36,Male,2019-06-04,1,0,48,48,198,6
16,delay,34,2,2,0.0265670700409828,36,Male,2019-06-04,1,0,49,49,199,6
16,delay,49,1,1,0.5309799714323162,36,Male,2019-06-04,1,0,50,50,200,6
16,delay,11,1,2,1.8628460477757471,36,Male,2019-06-04,1,0,51,51,201,6
16,delay,10,2,1,0.07508672450421727,36,Male,2019-06-04,1,0,52,52,202,6
16,delay,58,2,1,0.004523896388491266,36,Male,2019-06-04,1,0,53,53,203,6
16,delay,41,1,1,0.28425540598254884,36,Male,2019-06-04,1,0,54,54,204,6
16,delay,13,1,1,0.4130383566553064,36,Male,2019-06-04,1,0,55,55,205,6
16,delay,54,2,1,0.094515177559515,36,Male,2019-06-04,1,0,56,56,206,6
16,delay,2,2,2,0.3123068408785912,36,Male,2019-06-04,1,0,57,57,207,6
16,delay,1,1,2,0.25671040508495935,36,Male,2019-06-04,1,0,58,58,208,6
16,delay,23,1,1,0.030448493993390002,36,Male,2019-06-04,1,0,59,59,209,6
16,delay,7,1,1,0.006819235833972925,36,Male,2019-06-04,1,0,60,60,210,6
16,delay,22,2,1,0.44648835325460823,36,Male,2019-06-04,1,0,61,61,211,6
16,delay,55,1,2,0.28886061625416914,36,Male,2019-06-04,1,0,62,62,212,6
16,delay,40,2,1,0.30350917331816163,36,Male,2019-06-04,1,0,63,63,213,6
16,delay,34,2,2,0.3576564905797568,36,Male,2019-06-04,1,0,64,0,214,6
16,delay,8,2,1,0.4534869124836405,36,Male,2019-06-04,1,0,65,1,215,6
16,delay,1,1,2,0.10402797445021861,36,Male,2019-06-04,1,0,66,2,216,6
16,delay,55,1,2,0.481738385718927,36,Male,2019-06-04,1,0,67,3,217,6
16,delay,42,2,1,0.3089083533795929,36,Male,2019-06-04,1,0,68,4,218,6
16,delay,28,2,2,1.331499390917088,36,Male,2019-06-04,1,0,69,5,219,6
16,delay,24,2,2,0.4429930929582042,36,Male,2019-06-04,1,0,70,6,220,6
16,delay,49,1,1,0.3172877027445793,36,Male,2019-06-04,1,0,71,7,221,6
16,delay,35,1,2,0.3904519567895477,36,Male,2019-06-04,1,0,72,8,222,6
16,delay,54,2,1,1.3192376900678937,36,Male,2019-06-04,1,0,73,9,223,6
16,delay,53,1,1,0.8785216950400354,36,Male,2019-06-04,1,0,74,10,224,6
16,delay,16,2,2,0.011071364526287653,36,Male,2019-06-04,1,0,75,11,225,6
16,delay,39,1,1,0.19519722481709323,36,Male,2019-06-04,1,0,76,12,226,6
16,delay,21,1,2,0.30327388865771354,36,Male,2019-06-04,1,0,77,13,227,6
16,delay,11,1,2,0.1264978141098254,36,Male,2019-06-04,1,0,78,14,228,6
16,delay,41,1,2,0.15412938492045214,36,Male,2019-06-04,1,0,79,15,229,6
16,delay,4,2,2,0.43728999066297547,36,Male,2019-06-04,1,0,80,16,230,6
16,delay,51,1,2,1.7997903771356505,36,Male,2019-06-04,1,0,81,17,231,6
16,delay,32,2,1,0.00997501839628967,36,Male,2019-06-04,1,0,82,18,232,6
16,delay,14,2,2,3.233989203494275,36,Male,2019-06-04,1,0,83,19,233,6
16,delay,47,1,2,0.17445723755372455,36,Male,2019-06-04,1,0,84,20,234,6
16,delay,22,2,2,0.5132668393944186,36,Male,2019-06-04,1,0,85,21,235,6
16,delay,2,2,1,1.3170054229867674,36,Male,2019-06-04,1,0,86,22,236,6
16,delay,40,2,2,1.963497177201134,36,Male,2019-06-04,1,0,87,23,237,6
16,delay,19,1,2,0.6902751068209909,36,Male,2019-06-04,1,0,88,24,238,6
16,delay,62,2,2,0.3143727700517047,36,Male,2019-06-04,1,0,89,25,239,6
16,delay,36,2,2,0.24960579770959157,36,Male,2019-06-04,1,0,90,26,240,6
16,delay,60,2,1,0.6309447251096572,36,Male,2019-06-04,1,0,91,27,241,6
16,delay,59,1,2,0.013890142779928283,36,Male,2019-06-04,1,0,92,28,242,6
16,delay,17,1,1,0.3413173467561137,36,Male,2019-06-04,1,0,93,29,243,6
16,delay,20,2,2,0.2767327895908238,36,Male,2019-06-04,1,0,94,30,244,6
16,delay,58,2,2,2.54701457466399,36,Male,2019-06-04,1,0,95,31,245,6
16,delay,44,2,2,6.551198684137489,36,Male,2019-06-04,1,0,96,32,246,6
16,delay,15,1,1,0.003430332861171337,36,Male,2019-06-04,1,0,97,33,247,6
16,delay,29,1,2,1.2756930230843864,36,Male,2019-06-04,1,0,98,34,248,6
16,delay,61,1,2,0.8013371960005315,36,Male,2019-06-04,1,0,99,35,249,6
16,delay,12,2,2,1.0939212461125862,36,Male,2019-06-04,1,0,100,36,250,6
16,delay,33,1,1,0.05535991441865917,36,Male,2019-06-04,1,0,101,37,251,6
16,delay,43,1,2,0.6084201608955482,36,Male,2019-06-04,1,0,102,38,252,6
16,delay,57,1,2,1.1264894662963343,36,Male,2019-06-04,1,0,103,39,253,6
16,delay,23,1,2,0.4406730192495161,36,Male,2019-06-04,1,0,104,40,254,6
16,delay,38,2,1,0.1870101843323937,36,Male,2019-06-04,1,0,105,41,255,6
16,delay,0,2,1,0.21040075686869386,36,Male,2019-06-04,1,0,106,42,256,6
16,delay,30,2,2,0.3206707313311199,36,Male,2019-06-04,1,0,107,43,257,6
16,delay,5,1,1,0.06397640351497103,36,Male,2019-06-04,1,0,108,44,258,6
16,delay,7,1,2,0.3608648334447935,36,Male,2019-06-04,1,0,109,45,259,6
16,delay,18,2,2,0.08896666439977707,36,Male,2019-06-04,1,0,110,46,260,6
16,delay,13,1,2,0.3225585738236987,36,Male,2019-06-04,1,0,111,47,261,6
16,delay,45,1,1,0.03461219769997115,36,Male,2019-06-04,1,0,112,48,262,6
16,delay,6,2,2,0.5704512147622154,36,Male,2019-06-04,1,0,113,49,263,6
16,delay,52,2,2,0.3037305449579435,36,Male,2019-06-04,1,0,114,50,264,6
16,delay,10,2,1,0.11069262115233869,36,Male,2019-06-04,1,0,115,51,265,6
16,delay,50,2,2,0.9368181846293737,36,Male,2019-06-04,1,0,116,52,266,6
16,delay,25,1,2,2.038922142728552,36,Male,2019-06-04,1,0,117,53,267,6
16,delay,48,2,2,0.031102096847462235,36,Male,2019-06-04,1,0,118,54,268,6
16,delay,63,1,1,0.3755405981974036,36,Male,2019-06-04,1,0,119,55,269,6
16,delay,56,2,2,1.1658902169820067,36,Male,2019-06-04,1,0,120,56,270,6
16,delay,3,1,2,0.5133602112309745,36,Male,2019-06-04,1,0,121,57,271,6
16,delay,31,1,2,0.2773539287281892,36,Male,2019-06-04,1,0,122,58,272,6
16,delay,26,2,2,8.663409061397033,36,Male,2019-06-04,1,0,123,59,273,6
16,delay,46,2,2,0.38991120400169166,36,Male,2019-06-04,1,0,124,60,274,6
16,delay,37,1,2,3.0306472956181096,36,Male,2019-06-04,1,0,125,61,275,6
16,delay,27,1,1,0.47904760726851237,36,Male,2019-06-04,1,0,126,62,276,6
16,delay,9,1,1,0.20955206252801872,36,Male,2019-06-04,1,0,127,63,277,6
16,delay,40,2,1,0.15817621924543346,36,Male,2019-06-04,1,0,128,0,278,6
16,delay,46,2,2,0.009874226279862341,36,Male,2019-06-04,1,0,129,1,279,6
16,delay,32,2,1,0.48197119695214496,36,Male,2019-06-04,1,0,130,2,280,6
16,delay,27,1,2,0.44477086798724486,36,Male,2019-06-04,1,0,131,3,281,6
16,delay,26,2,2,2.7993052764359163,36,Male,2019-06-04,1,0,132,4,282,6
16,delay,39,1,1,1.6974066127040714,36,Male,2019-06-04,1,0,133,5,283,6
16,delay,62,2,1,0.1616114989574271,36,Male,2019-06-04,1,0,134,6,284,6
16,delay,5,1,1,0.36516735819532187,36,Male,2019-06-04,1,0,135,7,285,6
16,delay,38,2,2,0.6885715345761128,36,Male,2019-06-04,1,0,136,8,286,6
16,delay,44,2,2,0.42943036996257433,36,Male,2019-06-04,1,0,137,9,287,6
16,delay,59,1,1,0.6233516160737054,36,Male,2019-06-04,1,0,138,10,288,6
16,delay,9,1,1,1.6379145307600993,36,Male,2019-06-04,1,0,139,11,289,6
16,delay,36,2,1,1.8443392551271245,36,Male,2019-06-04,1,0,140,12,290,6
16,delay,15,1,1,0.3604075587900297,36,Male,2019-06-04,1,0,141,13,291,6
16,delay,56,2,2,0.40798638378873875,36,Male,2019-06-04,1,0,142,14,292,6
16,delay,8,2,1,0.21797376931681356,36,Male,2019-06-04,1,0,143,15,293,6
16,delay,47,1,1,0.19828189637519245,36,Male,2019-06-04,1,0,144,16,294,6
16,delay,29,1,1,0.547197917376252,36,Male,2019-06-04,1,0,145,17,295,6
16,delay,63,1,2,0.1671702150015335,36,Male,2019-06-04,1,0,146,18,296,6
16,delay,7,1,1,0.1307613823992142,36,Male,2019-06-04,1,0,147,19,297,6
16,delay,35,1,2,0.14467687779324478,36,Male,2019-06-04,1,0,148,20,298,6
16,delay,28,2,1,0.25209499193078955,36,Male,2019-06-04,1,0,149,21,299,6
16,delay,43,2,2,0.12611412388105236,36,Male,2019-06-04,2,0,0,0,300,2
16,delay,35,2,2,0.008700276404852048,36,Male,2019-06-04,2,0,1,1,301,2
16,delay,14,2,2,0.09653751259975252,36,Male,2019-06-04,2,0,2,2,302,2
16,delay,15,2,1,0.1644172917222022,36,Male,2019-06-04,2,0,3,3,303,2
16,delay,24,1,1,0.4642704320449411,36,Male,2019-06-04,2,0,4,4,304,2
16,delay,55,1,2,0.3547134226664639,36,Male,2019-06-04,2,0,5,5,305,2
16,delay,19,1,2,0.9626608499929716,36,Male,2019-06-04,2,0,6,6,306,2
16,delay,0,2,1,0.4172193743470416,36,Male,2019-06-04,2,0,7,7,307,2
16,delay,3,2,1,0.3516673983885994,36,Male,2019-06-04,2,0,8,8,308,2
16,delay,51,1,1,2.5755801730156236,36,Male,2019-06-04,2,0,9,9,309,2
16,delay,25,1,1,0.04930496725864941,36,Male,2019-06-04,2,0,10,10,310,2
16,delay,56,1,1,0.04214007012160437,36,Male,2019-06-04,2,0,11,11,311,2
16,delay,61,1,1,0.08288543708658835,36,Male,2019-06-04,2,0,12,12,312,2
16,delay,23,1,1,2.4924588329140533,36,Male,2019-06-04,2,0,13,13,313,2
16,delay,38,2,2,0.20754611393749656,36,Male,2019-06-04,2,0,14,14,314,2
16,delay,45,2,1,0.5723464775328466,36,Male,2019-06-04,2,0,15,15,315,2
16,delay,63,1,2,0.06147236873766815,36,Male,2019-06-04,2,0,16,16,316,2
16,delay,31,1,1,0.5342498407735548,36,Male,2019-06-04,2,0,17,17,317,2
16,delay,53,1,1,0.18717219374411798,36,Male,2019-06-04,2,0,18,18,318,2
16,delay,42,2,1,0.21487332966535178,36,Male,2019-06-04,2,0,19,19,319,2
16,delay,54,1,1,0.24361701469752006,36,Male,2019-06-04,2,0,20,20,320,2
16,delay,47,2,1,0.12908130769937998,36,Male,2019-06-04,2,0,21,21,321,2
16,delay,1,2,2,0.5248931789083144,36,Male,2019-06-04,2,0,22,22,322,2
16,delay,27,1,1,1.0089364885989198,36,Male,2019-06-04,2,0,23,23,323,2
16,delay,4,2,2,0.444124994588492,36,Male,2019-06-04,2,0,24,24,324,2
16,delay,32,2,1,0.11007086365862051,36,Male,2019-06-04,2,0,25,25,325,2
16,delay,29,1,1,0.2961380542801635,36,Male,2019-06-04,2,0,26,26,326,2
16,delay,16,1,1,0.13466135704584303,36,Male,2019-06-04,2,0,27,27,327,2
16,delay,40,2,1,0.289646238226851,36,Male,2019-06-04,2,0,28,28,328,2
16,delay,46,2,2,0.3040817714681907,36,Male,2019-06-04,2,0,29,29,329,2
16,delay,59,1,1,0.20706039488322858,36,Male,2019-06-04,2,0,30,30,330,2
16,delay,10,2,2,0.18771696584917663,36,Male,2019-06-04,2,0,31,31,331,2
16,delay,8,2,1,0.3436454590973881,36,Male,2019-06-04,2,0,32,32,332,2
16,delay,62,1,2,0.3116080979962135,36,Male,2019-06-04,2,0,33,33,333,2
16,delay,44,2,2,0.3238302240297344,36,Male,2019-06-04,2,0,34,34,334,2
16,delay,26,1,1,0.29118656434911827,36,Male,2019-06-04,2,0,35,35,335,2
16,delay,17,1,2,0.06578014951810474,36,Male,2019-06-04,2,0,36,36,336,2
16,delay,22,1,1,0.08236014321119,36,Male,2019-06-04,2,0,37,37,337,2
16,delay,39,2,2,0.0762201720262965,36,Male,2019-06-04,2,0,38,38,338,2
16,delay,11,2,1,0.29344047390804917,36,Male,2019-06-04,2,0,39,39,339,2
16,delay,7,2,2,0.14792912397388136,36,Male,2019-06-04,2,0,40,40,340,2
16,delay,5,2,2,0.4951224036740314,36,Male,2019-06-04,2,0,41,41,341,2
16,delay,2,2,2,0.07233627464847814,36,Male,2019-06-04,2,0,42,42,342,2
16,delay,33,2,1,0.35367860300902976,36,Male,2019-06-04,2,0,43,43,343,2
16,delay,28,1,1,0.049694222694597556,36,Male,2019-06-04,2,0,44,44,344,2
16,delay,50,1,2,0.026721040818301844,36,Male,2019-06-04,2,0,45,45,345,2
16,delay,21,1,2,0.09889221427329176,36,Male,2019-06-04,2,0,46,46,346,2
16,delay,13,2,2,0.1408823329347797,36,Male,2019-06-04,2,0,47,47,347,2
16,delay,20,1,1,0.2158509513410536,36,Male,2019-06-04,2,0,48,48,348,2
16,delay,52,1,1,0.18078951762072393,36,Male,2019-06-04,2,0,49,49,349,2
16,delay,9,2,2,0.36847278303866915,36,Male,2019-06-04,2,0,50,50,350,2
16,delay,30,1,2,0.20920887465217675,36,Male,2019-06-04,2,0,51,51,351,2
16,delay,18,1,1,0.10140119590141694,36,Male,2019-06-04,2,0,52,52,352,2
16,delay,36,2,2,0.06343132223264547,36,Male,2019-06-04,2,0,53,53,353,2
16,delay,34,2,2,0.18449842009795248,36,Male,2019-06-04,2,0,54,54,354,2
16,delay,58,1,2,2.4203071376905427,36,Male,2019-06-04,2,0,55,55,355,2
16,delay,12,2,2,0.3924616155181866,36,Male,2019-06-04,2,0,56,56,356,2
16,delay,57,1,1,0.3935845509804494,36,Male,2019-06-04,2,0,57,57,357,2
16,delay,41,2,2,4.858766131375887,36,Male,2019-06-04,2,0,58,58,358,2
16,delay,48,1,2,18.15818240280896,36,Male,2019-06-04,2,0,59,59,359,2
16,delay,37,2,2,7.349373914010357,36,Male,2019-06-04,2,0,60,60,360,2
16,delay,6,2,2,3.998450089353355,36,Male,2019-06-04,2,0,61,61,361,2
16,delay,60,1,2,0.7494734694137151,36,Male,2019-06-04,2,0,62,62,362,2
16,delay,49,1,2,0.3426706200261833,36,Male,2019-06-04,2,0,63,63,363,2
16,delay,30,1,2,0.03863646200989024,36,Male,2019-06-04,2,0,64,0,364,2
16,delay,40,2,2,0.11092945170275925,36,Male,2019-06-04,2,0,65,1,365,2
16,delay,18,1,1,0.32906801303579414,36,Male,2019-06-04,2,0,66,2,366,2
16,delay,42,2,1,0.056448531093337806,36,Male,2019-06-04,2,0,67,3,367,2
16,delay,4,2,1,0.017582040452907677,36,Male,2019-06-04,2,0,68,4,368,2
16,delay,31,1,2,0.3774902763434511,36,Male,2019-06-04,2,0,69,5,369,2
16,delay,43,2,2,0.2246798459054844,36,Male,2019-06-04,2,0,70,6,370,2
16,delay,41,2,1,0.09377778739690257,36,Male,2019-06-04,2,0,71,7,371,2
16,delay,15,2,1,0.05526468751486391,36,Male,2019-06-04,2,0,72,8,372,2
16,delay,22,1,2,0.2823885876114218,36,Male,2019-06-04,2,0,73,9,373,2
16,delay,46,2,1,0.3605111335091351,36,Male,2019-06-04,2,0,74,10,374,2
16,delay,13,2,1,0.5365535280325275,36,Male,2019-06-04,2,0,75,11,375,2
16,delay,28,1,2,0.5731991911907244,36,Male,2019-06-04,2,0,76,12,376,2
16,delay,57,1,2,1.4582708277939673,36,Male,2019-06-04,2,0,77,13,377,2
16,delay,34,2,2,1.4368933149471559,36,Male,2019-06-04,2,0,78,14,378,2
16,delay,49,1,2,0.006808105417803745,36,Male,2019-06-04,2,0,79,15,379,2
16,delay,23,1,2,0.7986009683463635,36,Male,2019-06-04,2,0,80,16,380,2
16,delay,47,2,2,5.0012373314202705,36,Male,2019-06-04,2,0,81,17,381,2
16,delay,17,1,2,1.665683067543796,36,Male,2019-06-04,2,0,82,18,382,2
16,delay,20,1,2,0.017144553206890123,36,Male,2019-06-04,2,0,83,19,383,2
16,delay,26,1,2,1.2192101732016454,36,Male,2019-06-04,2,0,84,20,384,2
16,delay,62,1,1,0.4562076812253508,36,Male,2019-06-04,2,0,85,21,385,2
16,delay,63,1,2,0.2715710584416229,36,Male,2019-06-04,2,0,86,22,386,2
16,delay,33,2,1,0.029992765228598728,36,Male,2019-06-04,2,0,87,23,387,2
16,delay,27,1,1,3.2064383282104245,36,Male,2019-06-04,2,0,88,24,388,2
16,delay,29,1,2,0.11422374612811836,36,Male,2019-06-04,2,0,89,25,389,2
16,delay,39,2,2,0.30102894526862656,36,Male,2019-06-04,2,0,90,26,390,2
16,delay,53,1,1,0.12395451369229704,36,Male,2019-06-04,2,0,91,27,391,2
16,delay,10,2,1,0.15018952627724502,36,Male,2019-06-04,2,0,92,28,392,2
16,delay,51,1,1,0.01732387660013046,36,Male,2019-06-04,2,0,93,29,393,2
16,delay,45,2,1,0.009570922402417636,36,Male,2019-06-04,2,0,94,30,394,2
16,delay,8,2,1,0.017352011822367785,36,Male,2019-06-04,2,0,95,31,395,2
16,delay,37,2,1,0.10593282174704655,36,Male,2019-06-04,2,0,96,32,396,2
16,delay,59,1,1,0.178913733081572,36,Male,2019-06-04,2,0,97,33,397,2
16,delay,61,1,1,0.3188332848949358,36,Male,2019-06-04,2,0,98,34,398,2
16,delay,60,1,1,0.1808055948895344,36,Male,2019-06-04,2,0,99,35,399,2
16,delay,19,1,1,0.2887103556167858,36,Male,2019-06-04,2,0,100,36,400,2
16,delay,24,1,2,0.2070984238089295,36,Male,2019-06-04,2,0,101,37,401,2
16,delay,7,2,2,0.10809243193398288,36,Male,2019-06-04,2,0,102,38,402,2
16,delay,6,2,2,0.16606366598716704,36,Male,2019-06-04,2,0,103,39,403,2
16,delay,48,1,2,0.4495012954575941,36,Male,2019-06-04,2,0,104,40,404,2
16,delay,50,1,1,0.4576373215259082,36,Male,2019-06-04,2,0,105,41,405,2
16,delay,25,1,2,0.15626982605681405,36,Male,2019-06-04,2,0,106,42,406,2
16,delay,1,2,2,0.43941837384591054,36,Male,2019-06-04,2,0,107,43,407,2
16,delay,12,2,2,1.0497588409525633,36,Male,2019-06-04,2,0,108,44,408,2
16,delay,16,1,2,0.2106440801635472,36,Male,2019-06-04,2,0,109,45,409,2
16,delay,35,2,1,0.8472183231406234,36,Male,2019-06-04,2,0,110,46,410,2
16,delay,21,1,1,3.2594614732970513,36,Male,2019-06-04,2,0,111,47,411,2
16,delay,56,1,2,0.008726556558031007,36,Male,2019-06-04,2,0,112,48,412,2
16,delay,44,2,2,4.288583901705351,36,Male,2019-06-04,2,0,113,49,413,2
16,delay,14,2,1,0.18266004612996767,36,Male,2019-06-04,2,0,114,50,414,2
16,delay,9,2,2,14.59455444320156,36,Male,2019-06-04,2,0,115,51,415,2
16,delay,52,1,2,9.74707702867454,36,Male,2019-06-04,2,0,116,52,416,2
16,delay,36,2,2,6.945467446621478,36,Male,2019-06-04,2,0,117,53,417,2
16,delay,32,2,2,16.96708951947585,36,Male,2019-06-04,2,0,118,54,418,2
16,delay,0,2,2,8.952346663038043,36,Male,2019-06-04,2,0,119,55,419,2
16,delay,5,2,2,3.030073769934461,36,Male,2019-06-04,2,0,120,56,420,2
16,delay,38,2,2,1.5337829815907753,36,Male,2019-06-04,2,0,121,57,421,2
16,delay,54,1,2,5.958123040581995,36,Male,2019-06-04,2,0,122,58,422,2
16,delay,11,2,2,0.0520384123083204,36,Male,2019-06-04,2,0,123,59,423,2
16,delay,58,1,1,2.749031653671409,36,Male,2019-06-04,2,0,124,60,424,2
16,delay,2,2,1,0.7102798681662534,36,Male,2019-06-04,2,0,125,61,425,2
16,delay,55,1,2,0.3188901736957632,36,Male,2019-06-04,2,0,126,62,426,2
16,delay,3,2,2,0.5741471317542164,36,Male,2019-06-04,2,0,127,63,427,2
16,delay,50,1,1,19.18730823218175,36,Male,2019-06-04,2,0,128,0,428,2
16,delay,59,1,1,0.40325904810197244,36,Male,2019-06-04,2,0,129,1,429,2
16,delay,12,2,2,2.77240862236431,36,Male,2019-06-04,2,0,130,2,430,2
16,delay,60,1,2,0.6546689009956026,36,Male,2019-06-04,2,0,131,3,431,2
16,delay,39,2,2,0.22951106549044198,36,Male,2019-06-04,2,0,132,4,432,2
16,delay,56,1,1,0.2589556576531322,36,Male,2019-06-04,2,0,133,5,433,2
16,delay,24,1,1,0.21696182885170856,36,Male,2019-06-04,2,0,134,6,434,2
16,delay,58,1,2,0.8698640852344397,36,Male,2019-06-04,2,0,135,7,435,2
16,delay,13,2,1,0.3061616136619705,36,Male,2019-06-04,2,0,136,8,436,2
16,delay,55,1,2,0.6728931047055084,36,Male,2019-06-04,2,0,137,9,437,2
16,delay,43,2,1,0.44051193737323047,36,Male,2019-06-04,2,0,138,10,438,2
16,delay,5,2,1,0.4106873651217029,36,Male,2019-06-04,2,0,139,11,439,2
16,delay,3,2,2,0.2681283584479388,36,Male,2019-06-04,2,0,140,12,440,2
16,delay,40,2,1,0.7144148182942445,36,Male,2019-06-04,2,0,141,13,441,2
16,delay,18,1,1,0.1790117425916833,36,Male,2019-06-04,2,0,142,14,442,2
16,delay,2,2,1,8.878859936061417,36,Male,2019-06-04,2,0,143,15,443,2
16,delay,10,2,2,1.05906510675959,36,Male,2019-06-04,2,0,144,16,444,2
16,delay,36,2,1,0.05172274129836296,36,Male,2019-06-04,2,0,145,17,445,2
16,delay,11,2,1,0.33268539874734415,36,Male,2019-06-04,2,0,146,18,446,2
16,delay,44,2,2,0.3136743363484129,36,Male,2019-06-04,2,0,147,19,447,2
16,delay,15,2,2,0.20076892634824617,36,Male,2019-06-04,2,0,148,20,448,2
16,delay,17,1,2,0.04543065440702776,36,Male,2019-06-04,2,0,149,21,449,2
16,delay,45,1,1,9.512708463444142,36,Male,2019-06-04,3,0,0,0,450,4
16,delay,18,2,2,0.6193072551759542,36,Male,2019-06-04,3,0,1,1,451,4
16,delay,6,1,2,0.0824433121651964,36,Male,2019-06-04,3,0,2,2,452,4
16,delay,38,1,2,0.5403369424730045,36,Male,2019-06-04,3,0,3,3,453,4
16,delay,46,1,2,0.46441574583150214,36,Male,2019-06-04,3,0,4,4,454,4
