sub_num,condition,stim_id,cat,resp,rt,age,gender,date,prob_num,num_problems_solved,current_trial_prob,current_trial_stim,current_trial_exp,relevant_dim
19,immediate,57,2,1,1.4685928696635528,22,Female,2019-06-04,0,0,0,0,0,4
19,immediate,49,2,2,1.2296374232191738,22,Female,2019-06-04,0,0,1,1,1,4
19,immediate,29,1,2,1.2185595556729822,22,Female,2019-06-04,0,0,2,2,2,4
19,immediate,60,1,1,1.0951240377962677,22,Female,2019-06-04,0,0,3,3,3,4
19,immediate,6,1,1,2.4835292855477746,22,Female,2019-06-04,0,0,4,4,4,4
19,immediate,48,2,2,1.3017774365816877,22,Female,2019-06-04,0,0,5,5,5,4
19,immediate,2,2,2,1.4532539033007197,22,Female,2019-06-04,0,0,6,6,6,4
19,immediate,44,1,1,0.712079946151789,22,Female,2019-06-04,0,0,7,7,7,4
19,immediate,15,1,1,0.6880960382786725,22,Female,2019-06-04,0,0,8,8,8,4
19,immediate,4,1,1,1.0800794094193407,22,Female,2019-06-04,0,0,9,9,9,4
19,immediate,43,2,2,0.8916486853577226,22,Female,2019-06-04,0,0,10,10,10,4
19,immediate,9,2,2,2.0084408836701186,22,Female,2019-06-04,0,0,11,11,11,4
19,immediate,8,2,2,0.6720471979606373,22,Female,2019-06-04,0,0,12,12,12,4
19,immediate,53,1,1,3.1915821810507623,22,Female,2019-06-04,0,0,13,13,13,4
19,immediate,1,2,2,0.8578390830753051,22,Female,2019-06-04,0,0,14,14,14,4
19,immediate,61,1,1,0.9553060759462824,22,Female,2019-06-04,0,0,15,15,15,4
19,immediate,26,2,2,0.7457185726943862,22,Female,2019-06-04,0,0,16,16,16,4
19,immediate,58,2,2,0.851185869798428,22,Female,2019-06-04,0,0,17,17,17,4
19,immediate,35,2,2,0.6230934118084406,22,Female,2019-06-04,0,0,18,18,18,4
19,immediate,41,2,2,0.613627601234839,22,Female,2019-06-04,0,0,19,19,19,4
19,immediate,38,1,1,0.7318853058859531,22,Female,2019-06-04,0,0,20,20,20,4
19,immediate,52,1,1,0.9970943399603129,22,Female,2019-06-04,0,0,21,21,21,4
19,immediate,55,1,1,0.7244084409467177,22,Female,2019-06-04,0,0,22,22,22,4
19,immediate,12,1,1,0.5258527376372513,22,Female,2019-06-04,0,0,23,23,23,4
19,immediate,22,1,1,0.5620154978842038,22,Female,2019-06-04,0,0,24,24,24,4
19,immediate,32,2,2,0.6786858798459434,22,Female,2019-06-04,0,0,25,25,25,4
19,immediate,17,2,1,1.9922034444352903,22,Female,2019-06-04,1,1,0,0,26,5
19,immediate,50,1,2,1.0554338594411092,22,Female,2019-06-04,1,1,1,1,27,5
19,immediate,7,1,2,2.144367524255358,22,Female,2019-06-04,1,1,2,2,28,5
19,immediate,4,2,1,0.587672370907967,22,Female,2019-06-04,1,1,3,3,29,5
19,immediate,60,2,2,0.5368418709385878,22,Female,2019-06-04,1,1,4,4,30,5
19,immediate,55,1,2,0.6695134797209903,22,Female,2019-06-04,1,1,5,5,31,5
19,immediate,30,1,2,1.3325886252587225,22,Female,2019-06-04,1,1,6,6,32,5
19,immediate,57,2,2,2.6501313854259934,22,Female,2019-06-04,1,1,7,7,33,5
19,immediate,35,1,2,0.7530374473972188,22,Female,2019-06-04,1,1,8,8,34,5
19,immediate,12,2,1,0.9708994962566067,22,Female,2019-06-04,1,1,9,9,35,5
19,immediate,24,2,1,4.826225266873735,22,Female,2019-06-04,1,1,10,10,36,5
19,immediate,25,2,1,0.44413159010218806,22,Female,2019-06-04,1,1,11,11,37,5
19,immediate,36,2,1,0.858632435241816,22,Female,2019-06-04,1,1,12,12,38,5
19,immediate,51,1,2,2.838454515353078,22,Female,2019-06-04,1,1,13,13,39,5
19,immediate,3,1,2,1.6178067677319632,22,Female,2019-06-04,1,1,14,14,40,5
19,immediate,42,1,1,3.3121695460977207,22,Female,2019-06-04,1,1,15,15,41,5
19,immediate,47,1,2,1.6626589912066265,22,Female,2019-06-04,1,1,16,16,42,5
19,immediate,59,1,1,0.7685965488872171,22,Female,2019-06-04,1,1,17,17,43,5
19,immediate,41,2,1,0.6993117994588829,22,Female,2019-06-04,1,1,18,18,44,5
19,immediate,29,2,2,3.9392869167695608,22,Female,2019-06-04,1,1,19,19,45,5
19,immediate,58,1,1,2.2569480923230003,22,Female,2019-06-04,1,1,20,20,46,5
19,immediate,28,2,2,0.846127090317168,22,Female,2019-06-04,1,1,21,21,47,5
19,immediate,8,2,2,0.9062950917596027,22,Female,2019-06-04,1,1,22,22,48,5
19,immediate,48,2,1,0.5515327990524383,22,Female,2019-06-04,1,1,23,23,49,5
19,immediate,1,2,2,2.668326543258445,22,Female,2019-06-04,1,1,24,24,50,5
19,immediate,63,1,1,0.9452828164430684,22,Female,2019-06-04,1,1,25,25,51,5
19,immediate,61,2,2,1.4075044436685857,22,Female,2019-06-04,1,1,26,26,52,5
19,immediate,23,1,1,0.8241615000351885,22,Female,2019-06-04,1,1,27,27,53,5
19,immediate,54,1,1,0.751450743064197,22,Female,2019-06-04,1,1,28,28,54,5
19,immediate,27,1,1,1.5293081171421363,22,Female,2019-06-04,1,1,29,29,55,5
19,immediate,26,1,1,1.0617401743838855,22,Female,2019-06-04,1,1,30,30,56,5
19,immediate,2,1,1,0.7847004229861341,22,Female,2019-06-04,1,1,31,31,57,5
19,immediate,38,1,1,2.1231557112841983,22,Female,2019-06-04,1,1,32,32,58,5
19,immediate,0,2,2,0.7412095126819622,22,Female,2019-06-04,1,1,33,33,59,5
19,immediate,13,2,2,0.9423669535117369,22,Female,2019-06-04,1,1,34,34,60,5
19,immediate,53,2,2,0.6691715282413497,22,Female,2019-06-04,1,1,35,35,61,5
19,immediate,56,1,2,0.9278114456046751,22,Female,2019-06-04,2,2,0,0,62,2
19,immediate,8,2,2,0.8782297178095178,22,Female,2019-06-04,2,2,1,1,63,2
19,immediate,61,1,1,0.4673369863812695,22,Female,2019-06-04,2,2,2,2,64,2
19,immediate,13,2,2,0.8221632790482545,22,Female,2019-06-04,2,2,3,3,65,2
19,immediate,27,1,2,0.8493419289097801,22,Female,2019-06-04,2,2,4,4,66,2
19,immediate,49,1,2,3.9174728239777323,22,Female,2019-06-04,2,2,5,5,67,2
19,immediate,33,2,1,1.5139877014953527,22,Female,2019-06-04,2,2,6,6,68,2
19,immediate,35,2,2,0.5825786542518472,22,Female,2019-06-04,2,2,7,7,69,2
19,immediate,3,2,2,0.6842622242238576,22,Female,2019-06-04,2,2,8,8,70,2
19,immediate,4,2,2,0.5164564922397403,22,Female,2019-06-04,2,2,9,9,71,2
19,immediate,57,1,1,0.5679931560225668,22,Female,2019-06-04,2,2,10,10,72,2
19,immediate,62,1,1,2.0770197784604534,22,Female,2019-06-04,2,2,11,11,73,2
19,immediate,20,1,1,0.6459188276458008,22,Female,2019-06-04,2,2,12,12,74,2
19,immediate,17,1,1,0.9936083517786756,22,Female,2019-06-04,2,2,13,13,75,2
19,immediate,60,1,1,1.4250970124994637,22,Female,2019-06-04,2,2,14,14,76,2
19,immediate,19,1,1,2.490616894692721,22,Female,2019-06-04,2,2,15,15,77,2
19,immediate,15,2,2,0.6860984356499102,22,Female,2019-06-04,2,2,16,16,78,2
19,immediate,53,1,1,1.1259667626873124,22,Female,2019-06-04,2,2,17,17,79,2
19,immediate,36,2,2,1.1254176615784672,22,Female,2019-06-04,2,2,18,18,80,2
19,immediate,56,2,2,3.2205515930891124,22,Female,2019-06-04,3,3,0,0,81,6
19,immediate,53,1,2,0.6528533934051666,22,Female,2019-06-04,3,3,1,1,82,6
19,immediate,24,2,2,1.475987493109642,22,Female,2019-06-04,3,3,2,2,83,6
19,immediate,62,2,1,0.590941624923289,22,Female,2019-06-04,3,3,3,3,84,6
19,immediate,5,1,1,1.2042303664657084,22,Female,2019-06-04,3,3,4,4,85,6
19,immediate,43,1,2,1.029124310492989,22,Female,2019-06-04,3,3,5,5,86,6
19,immediate,63,1,2,1.4077752840821631,22,Female,2019-06-04,3,3,6,6,87,6
19,immediate,25,1,2,2.0408097138952144,22,Female,2019-06-04,3,3,7,7,88,6
19,immediate,49,1,2,0.9611309998799697,22,Female,2019-06-04,3,3,8,8,89,6
19,immediate,32,2,1,0.9597774161775305,22,Female,2019-06-04,3,3,9,9,90,6
19,immediate,2,2,2,2.6064942336652166,22,Female,2019-06-04,3,3,10,10,91,6
19,immediate,28,2,1,1.972181350534811,22,Female,2019-06-04,3,3,11,11,92,6
19,immediate,38,2,1,1.963008641230772,22,Female,2019-06-04,3,3,12,12,93,6
19,immediate,35,1,2,2.0176460567217873,22,Female,2019-06-04,3,3,13,13,94,6
19,immediate,14,2,2,2.1211676931925467,22,Female,2019-06-04,3,3,14,14,95,6
19,immediate,26,2,2,0.8039189618284581,22,Female,2019-06-04,3,3,15,15,96,6
19,immediate,46,2,2,0.5756972672024858,22,Female,2019-06-04,3,3,16,16,97,6
19,immediate,10,2,2,0.6287640556438419,22,Female,2019-06-04,3,3,17,17,98,6
19,immediate,33,1,1,0.7959334981660504,22,Female,2019-06-04,3,3,18,18,99,6
19,immediate,48,2,2,2.2464088138149236,22,Female,2019-06-04,3,3,19,19,100,6
19,immediate,44,2,2,0.753477717655187,22,Female,2019-06-04,3,3,20,20,101,6
19,immediate,57,1,1,0.9229641442543652,22,Female,2019-06-04,3,3,21,21,102,6
19,immediate,15,1,1,1.088286554102524,22,Female,2019-06-04,3,3,22,22,103,6
19,immediate,21,1,1,1.329308859170851,22,Female,2019-06-04,3,3,23,23,104,6
19,immediate,9,1,1,0.6330573090272082,22,Female,2019-06-04,3,3,24,24,105,6
19,immediate,18,2,2,1.6635287104745657,22,Female,2019-06-04,3,3,25,25,106,6
19,immediate,25,2,1,2.5093756850237696,22,Female,2019-06-04,4,4,0,0,107,1
19,immediate,15,2,1,1.7601618487897213,22,Female,2019-06-04,4,4,1,1,108,1
19,immediate,0,2,2,1.0257304575188755,22,Female,2019-06-04,4,4,2,2,109,1
19,immediate,7,2,2,0.5941948016570677,22,Female,2019-06-04,4,4,3,3,110,1
19,immediate,1,2,2,0.5994882476607017,22,Female,2019-06-04,4,4,4,4,111,1
19,immediate,24,2,2,0.6855555181100499,22,Female,2019-06-04,4,4,5,5,112,1
19,immediate,33,1,1,1.317453407566063,22,Female,2019-06-04,4,4,6,6,113,1
19,immediate,45,1,1,1.5607713633871754,22,Female,2019-06-04,4,4,7,7,114,1
19,immediate,12,2,2,1.365936933139892,22,Female,2019-06-04,4,4,8,8,115,1
19,immediate,39,1,1,0.7979249172240088,22,Female,2019-06-04,4,4,9,9,116,1
19,immediate,21,2,2,1.8967046822308475,22,Female,2019-06-04,4,4,10,10,117,1
19,immediate,42,1,1,0.8457798828039813,22,Female,2019-06-04,4,4,11,11,118,1
19,immediate,47,1,1,1.8295362599965301,22,Female,2019-06-04,4,4,12,12,119,1
19,immediate,61,1,1,0.7287224092924589,22,Female,2019-06-04,4,4,13,13,120,1
19,immediate,21,1,2,2.0597904944297625,22,Female,2019-06-04,0,5,0,0,121,4
19,immediate,28,1,2,0.8522998401240329,22,Female,2019-06-04,0,5,1,1,122,4
19,immediate,2,2,2,0.688314936694951,22,Female,2019-06-04,0,5,2,2,123,4
19,immediate,55,1,1,1.19230442215121,22,Female,2019-06-04,0,5,3,3,124,4
19,immediate,11,2,2,2.0280292000588815,22,Female,2019-06-04,0,5,4,4,125,4
19,immediate,9,2,2,0.5644623369498731,22,Female,2019-06-04,0,5,5,5,126,4
19,immediate,51,2,1,1.1295677652906306,22,Female,2019-06-04,0,5,6,6,127,4
19,immediate,16,2,1,3.3380913851433434,22,Female,2019-06-04,0,5,7,7,128,4
19,immediate,22,1,1,0.8097902625449933,22,Female,2019-06-04,0,5,8,8,129,4
19,immediate,46,1,2,1.4606930484605982,22,Female,2019-06-04,0,5,9,9,130,4
19,immediate,58,2,1,1.2471984558396798,22,Female,2019-06-04,0,5,10,10,131,4
19,immediate,49,2,1,1.908504481696582,22,Female,2019-06-04,0,5,11,11,132,4
19,immediate,63,1,2,0.8420072861026711,22,Female,2019-06-04,0,5,12,12,133,4
19,immediate,54,1,1,0.7255950682319963,22,Female,2019-06-04,0,5,13,13,134,4
19,immediate,33,2,2,1.0385069520343677,22,Female,2019-06-04,0,5,14,14,135,4
19,immediate,59,2,2,3.09257733405866,22,Female,2019-06-04,0,5,15,15,136,4
19,immediate,4,1,2,0.3973612228892307,22,Female,2019-06-04,0,5,16,16,137,4
19,immediate,3,2,2,0.8465905489683792,22,Female,2019-06-04,0,5,17,17,138,4
19,immediate,56,2,2,0.570534912905714,22,Female,2019-06-04,0,5,18,18,139,4
19,immediate,17,2,2,0.8460034188974532,22,Female,2019-06-04,0,5,19,19,140,4
19,immediate,44,1,1,0.7522969647634454,22,Female,2019-06-04,0,5,20,20,141,4
19,immediate,37,1,1,1.001749332252075,22,Female,2019-06-04,0,5,21,21,142,4
19,immediate,18,2,2,1.0344325970654609,22,Female,2019-06-04,0,5,22,22,143,4
19,immediate,60,1,1,1.0983333111762477,22,Female,2019-06-04,0,5,23,23,144,4
19,immediate,61,1,1,0.8281604154362867,22,Female,2019-06-04,0,5,24,24,145,4
19,immediate,31,1,1,0.8874432386819535,22,Female,2019-06-04,0,5,25,25,146,4
19,immediate,1,2,2,0.7885450582907652,22,Female,2019-06-04,0,5,26,26,147,4
19,immediate,43,2,2,0.7508289849956782,22,Female,2019-06-04,0,5,27,27,148,4
19,immediate,45,1,1,0.7121538398278062,22,Female,2019-06-04,0,5,28,28,149,4
19,immediate,37,2,2,1.9535610721941339,22,Female,2019-06-04,1,6,0,0,150,5
19,immediate,24,2,1,0.8396494904591236,22,Female,2019-06-04,1,6,1,1,151,5
19,immediate,40,2,1,4.467103247394334,22,Female,2019-06-04,1,6,2,2,152,5
19,immediate,49,2,1,0.34412624131255143,22,Female,2019-06-04,1,6,3,3,153,5
19,immediate,36,2,2,0.6319937348052918,22,Female,2019-06-04,1,6,4,4,154,5
19,immediate,1,2,2,0.8627590413852886,22,Female,2019-06-04,1,6,5,5,155,5
19,immediate,51,1,1,0.7952236242090294,22,Female,2019-06-04,1,6,6,6,156,5
19,immediate,41,2,2,0.9176861571795598,22,Female,2019-06-04,1,6,7,7,157,5
19,immediate,12,2,2,0.659133428169298,22,Female,2019-06-04,1,6,8,8,158,5
19,immediate,14,1,1,0.734969052773522,22,Female,2019-06-04,1,6,9,9,159,5
19,immediate,46,1,1,0.7279528638737247,22,Female,2019-06-04,1,6,10,10,160,5
19,immediate,55,1,1,1.295257479259817,22,Female,2019-06-04,1,6,11,11,161,5
19,immediate,15,1,1,1.397623715478403,22,Female,2019-06-04,1,6,12,12,162,5
19,immediate,20,2,2,1.4706816799644002,22,Female,2019-06-04,1,6,13,13,163,5
19,immediate,26,1,1,1.977723376094218,22,Female,2019-06-04,1,6,14,14,164,5
19,immediate,60,2,2,0.6406266183566913,22,Female,2019-06-04,1,6,15,15,165,5
19,immediate,24,1,2,1.8612193321932864,22,Female,2019-06-04,2,7,0,0,166,2
19,immediate,58,1,2,1.7851756304226,22,Female,2019-06-04,2,7,1,1,167,2
19,immediate,32,2,2,0.4754788943901076,22,Female,2019-06-04,2,7,2,2,168,2
19,immediate,50,1,1,0.7077375333792588,22,Female,2019-06-04,2,7,3,3,169,2
19,immediate,0,2,2,0.6523182053297205,22,Female,2019-06-04,2,7,4,4,170,2
19,immediate,21,1,1,1.3155810222488071,22,Female,2019-06-04,2,7,5,5,171,2
19,immediate,2,2,2,1.0026314186634409,22,Female,2019-06-04,2,7,6,6,172,2
19,immediate,38,2,2,1.5690026239990402,22,Female,2019-06-04,2,7,7,7,173,2
19,immediate,3,2,2,0.8304202014787734,22,Female,2019-06-04,2,7,8,8,174,2
19,immediate,26,1,1,0.9058545123225485,22,Female,2019-06-04,2,7,9,9,175,2
19,immediate,39,2,2,0.8549578481415665,22,Female,2019-06-04,2,7,10,10,176,2
19,immediate,16,1,1,0.8508535028540791,22,Female,2019-06-04,2,7,11,11,177,2
19,immediate,36,2,2,0.9588137066275522,22,Female,2019-06-04,2,7,12,12,178,2
19,immediate,27,1,1,1.2134806795875193,22,Female,2019-06-04,2,7,13,13,179,2
19,immediate,59,1,2,1.626464694747483,22,Female,2019-06-04,3,8,0,0,180,6
19,immediate,24,2,1,0.8731183779746061,22,Female,2019-06-04,3,8,1,1,181,6
19,immediate,23,1,2,0.8530622744347056,22,Female,2019-06-04,3,8,2,2,182,6
19,immediate,44,2,2,2.479417210795873,22,Female,2019-06-04,3,8,3,3,183,6
19,immediate,36,2,2,2.770305378748162,22,Female,2019-06-04,3,8,4,4,184,6
19,immediate,6,2,1,2.3161576402508217,22,Female,2019-06-04,3,8,5,5,185,6
19,immediate,42,2,2,0.9553196798024146,22,Female,2019-06-04,3,8,6,6,186,6
19,immediate,49,1,1,1.8342815324249386,22,Female,2019-06-04,3,8,7,7,187,6
19,immediate,9,1,2,0.7334509860793332,22,Female,2019-06-04,3,8,8,8,188,6
19,immediate,52,2,2,4.168557035867707,22,Female,2019-06-04,3,8,9,9,189,6
19,immediate,46,2,1,0.4755639184913889,22,Female,2019-06-04,3,8,10,10,190,6
19,immediate,17,1,1,0.7666363568623638,22,Female,2019-06-04,3,8,11,11,191,6
19,immediate,4,2,1,0.6735043564804073,22,Female,2019-06-04,3,8,12,12,192,6
19,immediate,39,1,2,3.257154623595852,22,Female,2019-06-04,3,8,13,13,193,6
19,immediate,10,2,1,1.8784427418322593,22,Female,2019-06-04,3,8,14,14,194,6
19,immediate,33,1,2,0.8112223776024621,22,Female,2019-06-04,3,8,15,15,195,6
19,immediate,0,2,1,1.2217777952300821,22,Female,2019-06-04,3,8,16,16,196,6
19,immediate,19,1,2,1.3051814924474456,22,Female,2019-06-04,3,8,17,17,197,6
19,immediate,28,2,2,0.7999920850306808,22,Female,2019-06-04,3,8,18,18,198,6
19,immediate,60,2,2,1.4669542233314132,22,Female,2019-06-04,3,8,19,19,199,6
19,immediate,53,1,1,0.8374481391620066,22,Female,2019-06-04,3,8,20,20,200,6
19,immediate,30,2,2,2.4011180514826265,22,Female,2019-06-04,3,8,21,21,201,6
19,immediate,43,1,2,0.6099644537425775,22,Female,2019-06-04,3,8,22,22,202,6
19,immediate,48,2,2,3.4541699993551447,22,Female,2019-06-04,3,8,23,23,203,6
19,immediate,8,2,2,0.46400620583153795,22,Female,2019-06-04,3,8,24,24,204,6
19,immediate,32,2,2,3.329191680499207,22,Female,2019-06-04,3,8,25,25,205,6
19,immediate,56,2,2,0.6400895752103679,22,Female,2019-06-04,3,8,26,26,206,6
19,immediate,12,2,1,0.7269325746492541,22,Female,2019-06-04,3,8,27,27,207,6
19,immediate,27,1,2,3.727957501552737,22,Female,2019-06-04,3,8,28,28,208,6
19,immediate,21,1,2,2.7285610180879303,22,Female,2019-06-04,3,8,29,29,209,6
19,immediate,1,1,1,3.0930342999599816,22,Female,2019-06-04,3,8,30,30,210,6
19,immediate,29,1,2,3.1343062357918825,22,Female,2019-06-04,3,8,31,31,211,6
19,immediate,50,2,2,2.141063951417891,22,Female,2019-06-04,3,8,32,32,212,6
19,immediate,45,1,1,1.0799844916036818,22,Female,2019-06-04,3,8,33,33,213,6
19,immediate,62,2,2,0.6010100244966452,22,Female,2019-06-04,3,8,34,34,214,6
19,immediate,15,1,1,0.9589352137991227,22,Female,2019-06-04,3,8,35,35,215,6
19,immediate,58,2,2,1.229568167223988,22,Female,2019-06-04,3,8,36,36,216,6
19,immediate,51,1,2,2.3386574910709896,22,Female,2019-06-04,3,8,37,37,217,6
19,immediate,13,1,1,3.3299024819916667,22,Female,2019-06-04,3,8,38,38,218,6
19,immediate,2,2,2,0.5927725803139765,22,Female,2019-06-04,3,8,39,39,219,6
19,immediate,7,1,1,0.8064294916766812,22,Female,2019-06-04,3,8,40,40,220,6
19,immediate,31,1,1,0.8560133837218018,22,Female,2019-06-04,3,8,41,41,221,6
19,immediate,40,2,2,0.883960651464804,22,Female,2019-06-04,3,8,42,42,222,6
19,immediate,61,1,1,2.1080412085539137,22,Female,2019-06-04,3,8,43,43,223,6
19,immediate,37,1,1,1.5737741766024556,22,Female,2019-06-04,3,8,44,44,224,6
19,immediate,47,1,1,1.1710026382206706,22,Female,2019-06-04,3,8,45,45,225,6
19,immediate,35,1,1,0.7265015797474916,22,Female,2019-06-04,3,8,46,46,226,6
19,immediate,22,2,2,1.2521644817534252,22,Female,2019-06-04,3,8,47,47,227,6
19,immediate,5,1,1,1.2579782752600295,22,Female,2019-06-04,3,8,48,48,228,6
19,immediate,41,1,1,0.9155447865232418,22,Female,2019-06-04,3,8,49,49,229,6
19,immediate,14,2,2,0.8965677161322674,22,Female,2019-06-04,3,8,50,50,230,6
19,immediate,0,2,2,1.6614516489571542,22,Female,2019-06-04,4,9,0,0,231,1
19,immediate,32,1,1,0.7969071014304063,22,Female,2019-06-04,4,9,1,1,232,1
19,immediate,63,1,1,1.0794443566719565,22,Female,2019-06-04,4,9,2,2,233,1
19,immediate,40,1,1,0.7332976335164858,22,Female,2019-06-04,4,9,3,3,234,1
19,immediate,37,1,1,1.014011353654496,22,Female,2019-06-04,4,9,4,4,235,1
19,immediate,16,2,2,1.007784188423102,22,Female,2019-06-04,4,9,5,5,236,1
19,immediate,38,1,1,0.9274759868749243,22,Female,2019-06-04,4,9,6,6,237,1
19,immediate,8,2,2,1.1972664287422958,22,Female,2019-06-04,4,9,7,7,238,1
19,immediate,4,2,2,1.2016023487685743,22,Female,2019-06-04,4,9,8,8,239,1
19,immediate,3,2,2,2.5977113985154574,22,Female,2019-06-04,4,9,9,9,240,1
19,immediate,51,1,1,0.6676194519077399,22,Female,2019-06-04,4,9,10,10,241,1
19,immediate,41,1,1,0.7392987892253586,22,Female,2019-06-04,4,9,11,11,242,1
19,immediate,33,2,2,2.3103667259565555,22,Female,2019-06-04,0,10,0,0,243,4
19,immediate,50,2,1,1.2051585204826551,22,Female,2019-06-04,0,10,1,1,244,4
19,immediate,58,2,2,2.242614265436714,22,Female,2019-06-04,0,10,2,2,245,4
19,immediate,11,2,2,3.8354693964247417,22,Female,2019-06-04,0,10,3,3,246,4
19,immediate,15,1,2,0.5986645959947055,22,Female,2019-06-04,0,10,4,4,247,4
19,immediate,9,2,2,0.4450931354022032,22,Female,2019-06-04,0,10,5,5,248,4
19,immediate,44,1,1,0.5590074997435295,22,Female,2019-06-04,0,10,6,6,249,4
19,immediate,54,1,1,0.8177312044936116,22,Female,2019-06-04,0,10,7,7,250,4
19,immediate,31,1,1,1.181125144037651,22,Female,2019-06-04,0,10,8,8,251,4
19,immediate,57,2,2,0.6408217100233742,22,Female,2019-06-04,0,10,9,9,252,4
19,immediate,4,1,1,1.3996040041092783,22,Female,2019-06-04,0,10,10,10,253,4
19,immediate,39,1,1,1.072660360865484,22,Female,2019-06-04,0,10,11,11,254,4
19,immediate,23,1,1,2.0498955440252757,22,Female,2019-06-04,0,10,12,12,255,4
19,immediate,18,2,2,0.8745993432421528,22,Female,2019-06-04,0,10,13,13,256,4
19,immediate,10,2,2,0.7269941011836636,22,Female,2019-06-04,0,10,14,14,257,4
19,immediate,56,2,2,0.6080988703542971,22,Female,2019-06-04,0,10,15,15,258,4
19,immediate,25,2,2,0.7420767585226713,22,Female,2019-06-04,0,10,16,16,259,4
19,immediate,39,1,2,0.7719075420081936,22,Female,2019-06-04,1,11,0,0,260,5
19,immediate,13,2,1,0.7979660379714915,22,Female,2019-06-04,1,11,1,1,261,5
19,immediate,15,1,1,0.8246132099011447,22,Female,2019-06-04,1,11,2,2,262,5
19,immediate,38,1,1,0.9477571724019072,22,Female,2019-06-04,1,11,3,3,263,5
19,immediate,8,2,2,1.0900303211419669,22,Female,2019-06-04,1,11,4,4,264,5
19,immediate,45,2,2,1.075566639263343,22,Female,2019-06-04,1,11,5,5,265,5
19,immediate,44,2,2,3.5248522358397167,22,Female,2019-06-04,1,11,6,6,266,5
19,immediate,23,1,1,1.3206277437657263,22,Female,2019-06-04,1,11,7,7,267,5
19,immediate,33,2,2,0.7036965696952393,22,Female,2019-06-04,1,11,8,8,268,5
19,immediate,4,2,2,1.560108484569355,22,Female,2019-06-04,1,11,9,9,269,5
19,immediate,51,1,1,0.6449022485612659,22,Female,2019-06-04,1,11,10,10,270,5
19,immediate,22,1,1,0.9994512080684217,22,Female,2019-06-04,1,11,11,11,271,5
19,immediate,31,1,1,7.222877852520469,22,Female,2019-06-04,1,11,12,12,272,5
19,immediate,46,1,2,2.8425557688551635,22,Female,2019-06-04,1,11,13,13,273,5
19,immediate,19,1,1,0.7739128741013701,22,Female,2019-06-04,1,11,14,14,274,5
19,immediate,7,1,1,0.9761586234380957,22,Female,2019-06-04,1,11,15,15,275,5
19,immediate,12,2,2,0.6870927538748219,22,Female,2019-06-04,1,11,16,16,276,5
19,immediate,58,1,1,0.9349522334596259,22,Female,2019-06-04,1,11,17,17,277,5
19,immediate,5,2,2,0.8048771061621665,22,Female,2019-06-04,1,11,18,18,278,5
19,immediate,10,1,1,1.5358212725350313,22,Female,2019-06-04,1,11,19,19,279,5
19,immediate,14,1,1,1.1640897149591183,22,Female,2019-06-04,1,11,20,20,280,5
19,immediate,41,2,2,0.7429205067928706,22,Female,2019-06-04,1,11,21,21,281,5
19,immediate,16,2,2,0.9763738117108005,22,Female,2019-06-04,1,11,22,22,282,5
19,immediate,17,2,2,0.6072801655463991,22,Female,2019-06-04,1,11,23,23,283,5
19,immediate,0,2,2,0.7573365751723031,22,Female,2019-06-04,1,11,24,24,284,5
19,immediate,18,1,1,1.3590586378777516,22,Female,2019-06-04,1,11,25,25,285,5
19,immediate,7,2,2,1.1905748773260711,22,Female,2019-06-04,2,12,0,0,286,2
19,immediate,22,1,1,1.0664502004547103,22,Female,2019-06-04,2,12,1,1,287,2
19,immediate,19,1,2,1.0037119977041584,22,Female,2019-06-04,2,12,2,2,288,2
19,immediate,42,2,1,4.251567457968122,22,Female,2019-06-04,2,12,3,3,289,2
19,immediate,14,2,1,0.5117579057732655,22,Female,2019-06-04,2,12,4,4,290,2
19,immediate,59,1,1,0.8034576674272103,22,Female,2019-06-04,2,12,5,5,291,2
19,immediate,41,2,2,0.4783332307888486,22,Female,2019-06-04,2,12,6,6,292,2
19,immediate,53,1,1,0.8013784416598355,22,Female,2019-06-04,2,12,7,7,293,2
19,immediate,5,2,2,1.324256263262214,22,Female,2019-06-04,2,12,8,8,294,2
19,immediate,12,2,2,0.8038073483712651,22,Female,2019-06-04,2,12,9,9,295,2
19,immediate,10,2,2,1.7585068159951334,22,Female,2019-06-04,2,12,10,10,296,2
19,immediate,29,1,1,0.7120978785096668,22,Female,2019-06-04,2,12,11,11,297,2
19,immediate,54,1,1,0.8967127208725287,22,Female,2019-06-04,2,12,12,12,298,2
19,immediate,16,1,1,0.9897890691172506,22,Female,2019-06-04,2,12,13,13,299,2
19,immediate,43,2,2,1.0051422576907498,22,Female,2019-06-04,2,12,14,14,300,2
19,immediate,26,1,1,0.7715584794223105,22,Female,2019-06-04,2,12,15,15,301,2
19,immediate,60,1,1,0.9254820943879167,22,Female,2019-06-04,2,12,16,16,302,2
19,immediate,57,1,2,1.005012711877498,22,Female,2019-06-04,3,13,0,0,303,6
19,immediate,14,2,2,0.5889019740134245,22,Female,2019-06-04,3,13,1,1,304,6
19,immediate,63,1,1,1.6184269799105095,22,Female,2019-06-04,3,13,2,2,305,6
19,immediate,6,2,2,0.6887858156296716,22,Female,2019-06-04,3,13,3,3,306,6
19,immediate,10,2,2,0.8566379243966367,22,Female,2019-06-04,3,13,4,4,307,6
19,immediate,41,1,1,2.552887619469402,22,Female,2019-06-04,3,13,5,5,308,6
19,immediate,4,2,2,0.589782205352094,22,Female,2019-06-04,3,13,6,6,309,6
19,immediate,50,2,2,0.9525834496107564,22,Female,2019-06-04,3,13,7,7,310,6
19,immediate,53,1,1,1.0308232466413756,22,Female,2019-06-04,3,13,8,8,311,6
19,immediate,32,2,2,2.998972599669287,22,Female,2019-06-04,3,13,9,9,312,6
19,immediate,49,1,1,0.8061750377291901,22,Female,2019-06-04,3,13,10,10,313,6
19,immediate,1,1,1,0.9610033091394143,22,Female,2019-06-04,3,13,11,11,314,6
19,immediate,24,2,2,0.783644269051365,22,Female,2019-06-04,3,13,12,12,315,6
19,immediate,30,2,2,0.3838921684146044,22,Female,2019-06-04,4,14,0,0,316,1
19,immediate,63,1,2,1.680711308545142,22,Female,2019-06-04,4,14,1,1,317,1
19,immediate,3,2,2,0.9285411069886322,22,Female,2019-06-04,4,14,2,2,318,1
19,immediate,56,1,1,0.542544360167085,22,Female,2019-06-04,4,14,3,3,319,1
19,immediate,34,1,1,2.8664438313771825,22,Female,2019-06-04,4,14,4,4,320,1
19,immediate,2,2,1,1.4853596225802903,22,Female,2019-06-04,4,14,5,5,321,1
19,immediate,37,1,2,1.0085308546294982,22,Female,2019-06-04,4,14,6,6,322,1
19,immediate,49,1,2,0.8483225672207482,22,Female,2019-06-04,4,14,7,7,323,1
19,immediate,22,2,2,1.1963104486585507,22,Female,2019-06-04,4,14,8,8,324,1
19,immediate,29,2,1,0.6246000388946413,22,Female,2019-06-04,4,14,9,9,325,1
19,immediate,36,1,2,4.294923566423677,22,Female,2019-06-04,4,14,10,10,326,1
19,immediate,44,1,2,0.6473957735906879,22,Female,2019-06-04,4,14,11,11,327,1
19,immediate,62,1,2,1.5825396977525088,22,Female,2019-06-04,4,14,12,12,328,1
19,immediate,10,2,2,1.1641472221708682,22,Female,2019-06-04,4,14,13,13,329,1
19,immediate,24,2,1,0.6718712753645377,22,Female,2019-06-04,4,14,14,14,330,1
19,immediate,38,1,1,0.8231306987399876,22,Female,2019-06-04,4,14,15,15,331,1
19,immediate,53,1,1,0.6583858344274631,22,Female,2019-06-04,4,14,16,16,332,1
19,immediate,13,2,2,5.474578566443597,22,Female,2019-06-04,4,14,17,17,333,1
19,immediate,35,1,1,0.7315813833702123,22,Female,2019-06-04,4,14,18,18,334,1
19,immediate,7,2,2,1.076505614528287,22,Female,2019-06-04,4,14,19,19,335,1
19,immediate,41,1,1,0.5497596600507677,22,Female,2019-06-04,4,14,20,20,336,1
19,immediate,43,1,1,0.45867720429669134,22,Female,2019-06-04,4,14,21,21,337,1
19,immediate,47,1,1,0.8298222501580312,22,Female,2019-06-04,4,14,22,22,338,1
19,immediate,21,2,2,1.720946259511038,22,Female,2019-06-04,4,14,23,23,339,1
19,immediate,50,1,1,0.649823134410326,22,Female,2019-06-04,4,14,24,24,340,1
19,immediate,27,2,2,1.6172814733708947,22,Female,2019-06-04,4,14,25,25,341,1
19,immediate,52,1,1,0.4794425634372601,22,Female,2019-06-04,4,14,26,26,342,1
19,immediate,31,2,2,0.5783806278614065,22,Female,2019-06-04,4,14,27,27,343,1
19,immediate,45,1,1,0.7932028331888432,22,Female,2019-06-04,4,14,28,28,344,1
19,immediate,59,1,1,1.6516970656175545,22,Female,2019-06-04,4,14,29,29,345,1
19,immediate,63,1,2,1.8107910735197947,22,Female,2019-06-04,0,15,0,0,346,4
19,immediate,11,2,2,1.6696365327861713,22,Female,2019-06-04,0,15,1,1,347,4
19,immediate,6,1,2,0.7248848850940703,22,Female,2019-06-04,0,15,2,2,348,4
19,immediate,55,1,2,1.5819333986109996,22,Female,2019-06-04,0,15,3,3,349,4
19,immediate,51,2,1,1.947594544482854,22,Female,2019-06-04,0,15,4,4,350,4
19,immediate,57,2,2,0.9458105842331861,22,Female,2019-06-04,0,15,5,5,351,4
19,immediate,26,2,2,2.0799276027501037,22,Female,2019-06-04,0,15,6,6,352,4
19,immediate,50,2,2,0.969086164042892,22,Female,2019-06-04,0,15,7,7,353,4
19,immediate,1,2,2,0.568044170484427,22,Female,2019-06-04,0,15,8,8,354,4
19,immediate,41,2,2,0.716972696751327,22,Female,2019-06-04,0,15,9,9,355,4
19,immediate,36,1,1,1.397623715480222,22,Female,2019-06-04,0,15,10,10,356,4
19,immediate,3,2,2,0.5906206975869281,22,Female,2019-06-04,0,15,11,11,357,4
19,immediate,53,1,1,0.7120651055829512,22,Female,2019-06-04,0,15,12,12,358,4
19,immediate,45,1,1,0.8184154166319786,22,Female,2019-06-04,0,15,13,13,359,4
19,immediate,13,1,1,0.7977236419865221,22,Female,2019-06-04,0,15,14,14,360,4
19,immediate,59,2,2,0.9682965220199549,22,Female,2019-06-04,0,15,15,15,361,4
19,immediate,62,1,1,0.5828176492723287,22,Female,2019-06-04,0,15,16,16,362,4
19,immediate,5,2,2,1.1473285272550129,22,Female,2019-06-04,1,16,0,0,363,5
19,immediate,61,2,1,2.078171777749958,22,Female,2019-06-04,1,16,1,1,364,5
19,immediate,50,1,1,0.8554856159316842,22,Female,2019-06-04,1,16,2,2,365,5
19,immediate,60,2,2,0.6074529963570967,22,Female,2019-06-04,1,16,3,3,366,5
19,immediate,32,2,2,0.517542636494909,22,Female,2019-06-04,1,16,4,4,367,5
19,immediate,14,1,1,0.6976329599183373,22,Female,2019-06-04,1,16,5,5,368,5
19,immediate,38,1,1,1.4418455238828756,22,Female,2019-06-04,1,16,6,6,369,5
19,immediate,8,2,2,1.1480622079616296,22,Female,2019-06-04,1,16,7,7,370,5
19,immediate,6,1,1,0.7352831781827263,22,Female,2019-06-04,1,16,8,8,371,5
19,immediate,11,1,1,1.1122871576189937,22,Female,2019-06-04,1,16,9,9,372,5
19,immediate,36,2,2,0.5547024975749082,22,Female,2019-06-04,1,16,10,10,373,5
19,immediate,44,2,2,0.5971477660150413,22,Female,2019-06-04,1,16,11,11,374,5
19,immediate,10,1,1,0.7151952292497299,22,Female,2019-06-04,1,16,12,12,375,5
19,immediate,26,1,1,1.107856938137047,22,Female,2019-06-04,1,16,13,13,376,5
19,immediate,58,1,2,1.297110077148318,22,Female,2019-06-04,2,17,0,0,377,2
19,immediate,43,2,1,2.3959127213674947,22,Female,2019-06-04,2,17,1,1,378,2
19,immediate,15,2,2,1.740918266485096,22,Female,2019-06-04,2,17,2,2,379,2
19,immediate,51,1,2,0.782146917319551,22,Female,2019-06-04,2,17,3,3,380,2
19,immediate,28,1,2,1.0162399126638775,22,Female,2019-06-04,2,17,4,4,381,2
19,immediate,31,1,1,0.9201530928512511,22,Female,2019-06-04,2,17,5,5,382,2
19,immediate,24,1,1,0.5013537382928916,22,Female,2019-06-04,2,17,6,6,383,2
19,immediate,38,2,2,0.7769341669209098,22,Female,2019-06-04,2,17,7,7,384,2
19,immediate,1,2,1,0.8170964609253133,22,Female,2019-06-04,2,17,8,8,385,2
19,immediate,52,1,2,1.6280727323992323,22,Female,2019-06-04,2,17,9,9,386,2
19,immediate,62,1,2,2.202742599271005,22,Female,2019-06-04,2,17,10,10,387,2
19,immediate,17,1,2,2.9829095371387666,22,Female,2019-06-04,2,17,11,11,388,2
19,immediate,16,1,2,0.9176787368942314,22,Female,2019-06-04,2,17,12,12,389,2
19,immediate,45,2,1,0.4992590535985073,22,Female,2019-06-04,2,17,13,13,390,2
19,immediate,50,1,2,0.7745371055989381,22,Female,2019-06-04,2,17,14,14,391,2
19,immediate,10,2,1,1.4088431868021871,22,Female,2019-06-04,2,17,15,15,392,2
19,immediate,42,2,2,0.7623288812646933,22,Female,2019-06-04,2,17,16,16,393,2
19,immediate,22,1,1,1.204185844755557,22,Female,2019-06-04,2,17,17,17,394,2
19,immediate,37,2,1,0.7605470852649887,22,Female,2019-06-04,2,17,18,18,395,2
19,immediate,47,2,1,4.162297097709597,22,Female,2019-06-04,2,17,19,19,396,2
19,immediate,7,2,2,3.293527934436497,22,Female,2019-06-04,2,17,20,20,397,2
19,immediate,34,2,2,0.635502911380172,22,Female,2019-06-04,2,17,21,21,398,2
19,immediate,11,2,2,1.2023066575111443,22,Female,2019-06-04,2,17,22,22,399,2
19,immediate,54,1,1,1.2545995720356586,22,Female,2019-06-04,2,17,23,23,400,2
19,immediate,9,2,2,1.7563002086644701,22,Female,2019-06-04,2,17,24,24,401,2
19,immediate,4,2,2,1.2213687520034,22,Female,2019-06-04,2,17,25,25,402,2
19,immediate,14,2,2,2.810306899906209,22,Female,2019-06-04,2,17,26,26,403,2
19,immediate,36,2,2,1.0129963204653905,22,Female,2019-06-04,2,17,27,27,404,2
19,immediate,26,1,1,0.6766134560057253,22,Female,2019-06-04,2,17,28,28,405,2
19,immediate,56,1,1,0.9245805297287006,22,Female,2019-06-04,2,17,29,29,406,2
19,immediate,25,1,1,1.2423953670222545,22,Female,2019-06-04,2,17,30,30,407,2
19,immediate,5,2,2,0.6398542903316411,22,Female,2019-06-04,2,17,31,31,408,2
19,immediate,41,2,2,1.030647633222543,22,Female,2019-06-04,2,17,32,32,409,2
19,immediate,13,1,2,0.9908461505892774,22,Female,2019-06-04,3,18,0,0,410,6
19,immediate,29,1,1,0.5738579639910313,22,Female,2019-06-04,3,18,1,1,411,6
19,immediate,39,1,2,0.6710983289831347,22,Female,2019-06-04,3,18,2,2,412,6
19,immediate,8,2,2,0.5986509921385732,22,Female,2019-06-04,3,18,3,3,413,6
19,immediate,14,2,1,0.44478952206372924,22,Female,2019-06-04,3,18,4,4,414,6
19,immediate,46,2,2,0.751081583870473,22,Female,2019-06-04,3,18,5,5,415,6
19,immediate,44,2,2,0.5204736491759832,22,Female,2019-06-04,3,18,6,6,416,6
19,immediate,43,1,1,0.5778485315713624,22,Female,2019-06-04,3,18,7,7,417,6
19,immediate,15,1,2,0.6787696672345191,22,Female,2019-06-04,3,18,8,8,418,6
19,immediate,51,1,1,0.7665807047233102,22,Female,2019-06-04,3,18,9,9,419,6
19,immediate,7,1,1,0.920451140977093,22,Female,2019-06-04,3,18,10,10,420,6
19,immediate,21,1,1,1.3019576876777137,22,Female,2019-06-04,3,18,11,11,421,6
19,immediate,2,2,2,0.6527711519102013,22,Female,2019-06-04,3,18,12,12,422,6
19,immediate,22,2,2,1.1558300099222834,22,Female,2019-06-04,3,18,13,13,423,6
19,immediate,24,2,2,0.9921450096881017,22,Female,2019-06-04,3,18,14,14,424,6
