sub_num,condition,stim_id,cat,resp,rt,age,gender,date,prob_num,num_problems_solved,current_trial_prob,current_trial_stim,current_trial_exp,relevant_dim
10,delay,40,2,2,3.3826545266674657,21,Female,2019-08-07,0,0,0,0,0,5
10,delay,19,1,2,0.953829748355929,21,Female,2019-08-07,0,0,1,1,1,5
10,delay,46,1,1,0.6983048049132776,21,Female,2019-08-07,0,0,2,2,2,5
10,delay,12,2,1,1.7648459038628062,21,Female,2019-08-07,0,0,3,3,3,5
10,delay,60,2,2,1.7689561235438305,21,Female,2019-08-07,0,0,4,4,4,5
10,delay,15,1,2,0.9089905103828642,21,Female,2019-08-07,0,0,5,5,5,5
10,delay,17,2,1,4.199781905449527,21,Female,2019-08-07,0,0,6,6,6,5
10,delay,45,2,2,1.2934469296560565,21,Female,2019-08-07,0,0,7,7,7,5
10,delay,10,1,2,1.4620583809492018,21,Female,2019-08-07,0,0,8,8,8,5
10,delay,7,1,2,2.1734448396091466,21,Female,2019-08-07,0,0,9,9,9,5
10,delay,48,2,2,2.938521390673486,21,Female,2019-08-07,0,0,10,10,10,5
10,delay,36,2,2,2.1704022134708794,21,Female,2019-08-07,0,0,11,11,11,5
10,delay,43,1,1,1.0320367724598327,21,Female,2019-08-07,0,0,12,12,12,5
10,delay,13,2,1,0.9222629272962877,21,Female,2019-08-07,0,0,13,13,13,5
10,delay,57,2,2,1.8820514739009013,21,Female,2019-08-07,0,0,14,14,14,5
10,delay,62,1,1,2.165027144330452,21,Female,2019-08-07,0,0,15,15,15,5
10,delay,30,1,2,1.8999547671774053,21,Female,2019-08-07,0,0,16,16,16,5
10,delay,50,1,1,0.8671957536180344,21,Female,2019-08-07,0,0,17,17,17,5
10,delay,16,2,1,1.1057792582623733,21,Female,2019-08-07,0,0,18,18,18,5
10,delay,25,2,2,2.1015731932302515,21,Female,2019-08-07,0,0,19,19,19,5
10,delay,18,1,2,0.8656891265300146,21,Female,2019-08-07,0,0,20,20,20,5
10,delay,52,2,2,3.2478195955509364,21,Female,2019-08-07,0,0,21,21,21,5
10,delay,47,1,2,1.3067882933873989,21,Female,2019-08-07,0,0,22,22,22,5
10,delay,2,1,2,2.564165216361289,21,Female,2019-08-07,0,0,23,23,23,5
10,delay,11,1,1,1.0508663646824061,21,Female,2019-08-07,0,0,24,24,24,5
10,delay,22,1,2,0.8456271485974867,21,Female,2019-08-07,0,0,25,25,25,5
10,delay,53,2,1,1.5312686183460755,21,Female,2019-08-07,0,0,26,26,26,5
10,delay,55,1,2,1.1835073647871468,21,Female,2019-08-07,0,0,27,27,27,5
10,delay,38,1,2,2.965311403092528,21,Female,2019-08-07,0,0,28,28,28,5
10,delay,31,1,1,3.2220313216421346,21,Female,2019-08-07,0,0,29,29,29,5
10,delay,21,2,1,1.0281012386622024,21,Female,2019-08-07,0,0,30,30,30,5
10,delay,14,1,1,1.702015256724735,21,Female,2019-08-07,0,0,31,31,31,5
10,delay,58,1,2,1.0646591290997094,21,Female,2019-08-07,0,0,32,32,32,5
10,delay,4,2,1,1.1085748507357494,21,Female,2019-08-07,0,0,33,33,33,5
10,delay,26,1,1,1.4487800896431509,21,Female,2019-08-07,0,0,34,34,34,5
10,delay,51,1,1,1.1251072463110177,21,Female,2019-08-07,0,0,35,35,35,5
10,delay,34,1,2,2.9696108400466983,21,Female,2019-08-07,0,0,36,36,36,5
10,delay,8,2,1,0.9877713698806474,21,Female,2019-08-07,0,0,37,37,37,5
10,delay,29,2,1,1.4838619616693904,21,Female,2019-08-07,0,0,38,38,38,5
10,delay,63,1,2,1.04886103258832,21,Female,2019-08-07,0,0,39,39,39,5
10,delay,9,2,2,1.9776420621346915,21,Female,2019-08-07,0,0,40,40,40,5
10,delay,24,2,2,1.4907346917198083,21,Female,2019-08-07,0,0,41,41,41,5
10,delay,54,1,1,1.3187754550572208,21,Female,2019-08-07,0,0,42,42,42,5
10,delay,56,2,2,1.2157404656290964,21,Female,2019-08-07,0,0,43,43,43,5
10,delay,35,1,2,0.8704711912059793,21,Female,2019-08-07,0,0,44,44,44,5
10,delay,37,2,1,1.157518743176297,21,Female,2019-08-07,0,0,45,45,45,5
10,delay,44,2,2,2.2024968023206384,21,Female,2019-08-07,0,0,46,46,46,5
10,delay,32,2,2,1.7848902586183613,21,Female,2019-08-07,0,0,47,47,47,5
10,delay,6,1,2,0.5571969501388594,21,Female,2019-08-07,0,0,48,48,48,5
10,delay,20,2,2,0.7722899958780545,21,Female,2019-08-07,0,0,49,49,49,5
10,delay,41,2,1,1.4394565012053135,21,Female,2019-08-07,0,0,50,50,50,5
10,delay,1,2,2,2.139219082994714,21,Female,2019-08-07,0,0,51,51,51,5
10,delay,28,2,2,2.4503296925495306,21,Female,2019-08-07,0,0,52,52,52,5
10,delay,0,2,1,2.486793283528641,21,Female,2019-08-07,0,0,53,53,53,5
10,delay,59,1,2,0.5076244977008173,21,Female,2019-08-07,0,0,54,54,54,5
10,delay,49,2,1,1.0347244616195894,21,Female,2019-08-07,0,0,55,55,55,5
10,delay,27,1,2,1.3889027160403202,21,Female,2019-08-07,0,0,56,56,56,5
10,delay,23,1,2,2.130175919504836,21,Female,2019-08-07,0,0,57,57,57,5
10,delay,61,2,1,1.99897476391925,21,Female,2019-08-07,0,0,58,58,58,5
10,delay,33,2,1,1.6561303768858124,21,Female,2019-08-07,0,0,59,59,59,5
10,delay,42,1,2,1.1296796879269095,21,Female,2019-08-07,0,0,60,60,60,5
10,delay,39,1,2,1.2301367465815929,21,Female,2019-08-07,0,0,61,61,61,5
10,delay,5,2,1,2.885210041996288,21,Female,2019-08-07,0,0,62,62,62,5
10,delay,3,1,2,1.2042479896435907,21,Female,2019-08-07,0,0,63,63,63,5
10,delay,48,2,1,1.0346725196222906,21,Female,2019-08-07,0,0,64,0,64,5
10,delay,0,2,2,1.085362034172249,21,Female,2019-08-07,0,0,65,1,65,5
10,delay,18,1,2,0.8924333805243805,21,Female,2019-08-07,0,0,66,2,66,5
10,delay,15,1,2,2.715050842866731,21,Female,2019-08-07,0,0,67,3,67,5
10,delay,59,1,2,1.5012161538370492,21,Female,2019-08-07,0,0,68,4,68,5
10,delay,39,1,2,2.122782532772362,21,Female,2019-08-07,0,0,69,5,69,5
10,delay,1,2,1,1.170255972015184,21,Female,2019-08-07,0,0,70,6,70,5
10,delay,5,2,2,0.32826074387776316,21,Female,2019-08-07,0,0,71,7,71,5
10,delay,61,2,2,0.9374952270563881,21,Female,2019-08-07,0,0,72,8,72,5
10,delay,35,1,1,1.0815968577562671,21,Female,2019-08-07,0,0,73,9,73,5
10,delay,28,2,2,0.5252807573151586,21,Female,2019-08-07,0,0,74,10,74,5
10,delay,55,1,2,0.5475051300454652,21,Female,2019-08-07,0,0,75,11,75,5
10,delay,54,1,1,1.4877675051484403,21,Female,2019-08-07,0,0,76,12,76,5
10,delay,14,1,1,1.1120939210240977,21,Female,2019-08-07,0,0,77,13,77,5
10,delay,6,1,1,0.5402014050932848,21,Female,2019-08-07,0,0,78,14,78,5
10,delay,58,1,2,0.9790546989424911,21,Female,2019-08-07,0,0,79,15,79,5
10,delay,40,2,1,1.4444277831553336,21,Female,2019-08-07,0,0,80,16,80,5
10,delay,36,2,1,1.5842890300045838,21,Female,2019-08-07,0,0,81,17,81,5
10,delay,44,2,2,0.8957363350036758,21,Female,2019-08-07,0,0,82,18,82,5
10,delay,57,2,2,1.1609728859684765,21,Female,2019-08-07,0,0,83,19,83,5
10,delay,16,2,1,3.2142063216497263,21,Female,2019-08-07,0,0,84,20,84,5
10,delay,29,2,2,1.8640628473431207,21,Female,2019-08-07,0,0,85,21,85,5
10,delay,17,2,1,0.7177620295960878,21,Female,2019-08-07,0,0,86,22,86,5
10,delay,24,2,2,1.0166545211031917,21,Female,2019-08-07,0,0,87,23,87,5
10,delay,11,1,2,0.842532889641916,21,Female,2019-08-07,0,0,88,24,88,5
10,delay,25,2,1,1.352494468022087,21,Female,2019-08-07,0,0,89,25,89,5
10,delay,13,2,2,1.3998269218463975,21,Female,2019-08-07,0,0,90,26,90,5
10,delay,50,1,1,2.163021193880013,21,Female,2019-08-07,0,0,91,27,91,5
10,delay,30,1,2,1.3764434387212532,21,Female,2019-08-07,0,0,92,28,92,5
10,delay,26,1,1,0.7949991605801188,21,Female,2019-08-07,0,0,93,29,93,5
10,delay,51,1,2,1.1275880950179271,21,Female,2019-08-07,0,0,94,30,94,5
10,delay,3,1,2,1.3721341080527054,21,Female,2019-08-07,0,0,95,31,95,5
10,delay,19,1,1,0.8549315679647407,21,Female,2019-08-07,0,0,96,32,96,5
10,delay,62,1,2,0.9806707752368311,21,Female,2019-08-07,0,0,97,33,97,5
10,delay,43,1,2,1.5419108533105828,21,Female,2019-08-07,0,0,98,34,98,5
10,delay,45,2,1,1.0765006676710982,21,Female,2019-08-07,0,0,99,35,99,5
10,delay,34,1,1,1.6879763861788888,21,Female,2019-08-07,0,0,100,36,100,5
10,delay,31,1,2,1.258078139932877,21,Female,2019-08-07,0,0,101,37,101,5
10,delay,4,2,2,1.953675159080376,21,Female,2019-08-07,0,0,102,38,102,5
10,delay,52,2,2,0.7720089525737421,21,Female,2019-08-07,0,0,103,39,103,5
10,delay,32,2,2,0.7690621717874819,21,Female,2019-08-07,0,0,104,40,104,5
10,delay,38,1,2,0.827836087135438,21,Female,2019-08-07,0,0,105,41,105,5
10,delay,41,2,2,1.4973322528576318,21,Female,2019-08-07,0,0,106,42,106,5
10,delay,46,1,2,2.1188655496871434,21,Female,2019-08-07,0,0,107,43,107,5
10,delay,23,1,2,1.3634455723622523,21,Female,2019-08-07,0,0,108,44,108,5
10,delay,63,1,2,2.0775441452869927,21,Female,2019-08-07,0,0,109,45,109,5
10,delay,8,2,1,3.17336754497137,21,Female,2019-08-07,0,0,110,46,110,5
10,delay,2,1,1,0.8298945979395285,21,Female,2019-08-07,0,0,111,47,111,5
10,delay,47,1,2,1.2114713281725926,21,Female,2019-08-07,0,0,112,48,112,5
10,delay,9,2,1,0.7057563172138543,21,Female,2019-08-07,0,0,113,49,113,5
10,delay,53,2,2,0.6521064180215035,21,Female,2019-08-07,0,0,114,50,114,5
10,delay,56,2,2,0.5494075056803922,21,Female,2019-08-07,0,0,115,51,115,5
10,delay,22,1,2,0.4759040149001521,21,Female,2019-08-07,0,0,116,52,116,5
10,delay,20,2,2,0.5764934019753127,21,Female,2019-08-07,0,0,117,53,117,5
10,delay,10,1,1,0.6639754734842427,21,Female,2019-08-07,0,0,118,54,118,5
10,delay,27,1,2,0.5458856527857279,21,Female,2019-08-07,0,0,119,55,119,5
10,delay,37,2,1,2.0144003002742465,21,Female,2019-08-07,0,0,120,56,120,5
10,delay,12,2,1,1.1602824902602151,21,Female,2019-08-07,0,0,121,57,121,5
10,delay,21,2,2,1.0056647694436833,21,Female,2019-08-07,0,0,122,58,122,5
10,delay,7,1,2,0.6192515591101255,21,Female,2019-08-07,0,0,123,59,123,5
10,delay,60,2,2,1.3158178530211444,21,Female,2019-08-07,0,0,124,60,124,5
10,delay,42,1,2,0.6048722829773396,21,Female,2019-08-07,0,0,125,61,125,5
10,delay,49,2,2,2.9649530651495297,21,Female,2019-08-07,0,0,126,62,126,5
10,delay,33,2,2,0.5015488299595745,21,Female,2019-08-07,0,0,127,63,127,5
10,delay,19,1,2,0.5711616178323311,21,Female,2019-08-07,0,0,128,0,128,5
10,delay,18,1,1,2.258670526039168,21,Female,2019-08-07,0,0,129,1,129,5
10,delay,32,2,1,0.5884660322526543,21,Female,2019-08-07,0,0,130,2,130,5
10,delay,36,2,2,1.9087360564344635,21,Female,2019-08-07,0,0,131,3,131,5
10,delay,7,1,1,0.7794632474815444,21,Female,2019-08-07,0,0,132,4,132,5
10,delay,24,2,1,0.8828751255650786,21,Female,2019-08-07,0,0,133,5,133,5
10,delay,57,2,2,0.7535652151864269,21,Female,2019-08-07,0,0,134,6,134,5
10,delay,63,1,2,0.6210386111451953,21,Female,2019-08-07,0,0,135,7,135,5
10,delay,46,1,2,0.9176360702540478,21,Female,2019-08-07,0,0,136,8,136,5
10,delay,44,2,2,1.7176497977816325,21,Female,2019-08-07,0,0,137,9,137,5
10,delay,35,1,1,0.808150688679234,21,Female,2019-08-07,0,0,138,10,138,5
10,delay,15,1,1,1.141147120450114,21,Female,2019-08-07,0,0,139,11,139,5
10,delay,47,1,1,1.0022542208280356,21,Female,2019-08-07,0,0,140,12,140,5
10,delay,9,2,1,0.7158683109601043,21,Female,2019-08-07,0,0,141,13,141,5
10,delay,12,2,2,0.4394432065282672,21,Female,2019-08-07,0,0,142,14,142,5
10,delay,56,2,2,0.507643975949577,21,Female,2019-08-07,0,0,143,15,143,5
10,delay,59,1,2,0.817143146887247,21,Female,2019-08-07,0,0,144,16,144,5
10,delay,16,2,2,0.830486984046729,21,Female,2019-08-07,0,0,145,17,145,5
10,delay,17,2,1,0.6198396167173996,21,Female,2019-08-07,0,0,146,18,146,5
10,delay,38,1,2,1.0602743588642625,21,Female,2019-08-07,0,0,147,19,147,5
10,delay,29,2,2,2.2170538561213107,21,Female,2019-08-07,0,0,148,20,148,5
10,delay,11,1,2,0.6621720349849056,21,Female,2019-08-07,0,0,149,21,149,5
10,delay,26,2,2,2.549936201005039,21,Female,2019-08-07,1,0,0,0,150,6
10,delay,5,1,1,0.8447707240065938,21,Female,2019-08-07,1,0,1,1,151,6
10,delay,0,2,2,1.0023383173947877,21,Female,2019-08-07,1,0,2,2,152,6
10,delay,47,1,1,0.6840674417353512,21,Female,2019-08-07,1,0,3,3,153,6
10,delay,24,2,2,0.8861372684759772,21,Female,2019-08-07,1,0,4,4,154,6
10,delay,58,2,2,0.6291876302611854,21,Female,2019-08-07,1,0,5,5,155,6
10,delay,4,2,2,0.5416301191844468,21,Female,2019-08-07,1,0,6,6,156,6
10,delay,23,1,1,0.48442188402896136,21,Female,2019-08-07,1,0,7,7,157,6
10,delay,3,1,1,0.5856197344955945,21,Female,2019-08-07,1,0,8,8,158,6
10,delay,39,1,1,0.6091618262189513,21,Female,2019-08-07,1,0,9,9,159,6
10,delay,61,1,1,0.8807683829063535,21,Female,2019-08-07,1,0,10,10,160,6
10,delay,53,1,1,0.6496048543513098,21,Female,2019-08-07,1,0,11,11,161,6
10,delay,37,2,2,1.112986210327108,21,Female,2019-08-07,2,1,0,0,162,3
10,delay,63,1,2,0.7332095176288931,21,Female,2019-08-07,2,1,1,1,163,3
10,delay,58,1,2,2.632354546177339,21,Female,2019-08-07,2,1,2,2,164,3
10,delay,36,2,2,3.547950347160622,21,Female,2019-08-07,2,1,3,3,165,3
10,delay,30,1,2,0.8505090779453894,21,Female,2019-08-07,2,1,4,4,166,3
10,delay,33,2,2,1.7929836255943883,21,Female,2019-08-07,2,1,5,5,167,3
10,delay,41,1,2,0.5341835537410589,21,Female,2019-08-07,2,1,6,6,168,3
10,delay,47,1,2,1.6118776506264112,21,Female,2019-08-07,2,1,7,7,169,3
10,delay,18,2,2,1.22454648916937,21,Female,2019-08-07,2,1,8,8,170,3
10,delay,2,2,2,0.5064910491264527,21,Female,2019-08-07,2,1,9,9,171,3
10,delay,50,2,2,0.4322331626772211,21,Female,2019-08-07,2,1,10,10,172,3
10,delay,62,1,2,0.6600343744712518,21,Female,2019-08-07,2,1,11,11,173,3
10,delay,17,2,2,0.7015010927916592,21,Female,2019-08-07,2,1,12,12,174,3
10,delay,5,2,1,1.0319066082893187,21,Female,2019-08-07,2,1,13,13,175,3
10,delay,52,2,2,1.0664229927424458,21,Female,2019-08-07,2,1,14,14,176,3
10,delay,27,1,1,1.0945885405444642,21,Female,2019-08-07,2,1,15,15,177,3
10,delay,38,2,2,0.7624874898629059,21,Female,2019-08-07,2,1,16,16,178,3
10,delay,23,2,1,1.6380660015820467,21,Female,2019-08-07,2,1,17,17,179,3
10,delay,15,1,2,2.3431999423692105,21,Female,2019-08-07,2,1,18,18,180,3
10,delay,6,2,2,1.0327426270960132,21,Female,2019-08-07,2,1,19,19,181,3
10,delay,51,2,2,0.5710354729826577,21,Female,2019-08-07,2,1,20,20,182,3
10,delay,12,1,1,0.6746541915181297,21,Female,2019-08-07,2,1,21,21,183,3
10,delay,48,2,2,0.6202446406223316,21,Female,2019-08-07,2,1,22,22,184,3
10,delay,22,2,2,0.43705047370804095,21,Female,2019-08-07,2,1,23,23,185,3
10,delay,40,1,1,0.72899139463334,21,Female,2019-08-07,2,1,24,24,186,3
10,delay,26,1,1,0.8044306523333944,21,Female,2019-08-07,2,1,25,25,187,3
10,delay,57,1,1,1.2459629783415949,21,Female,2019-08-07,2,1,26,26,188,3
10,delay,39,2,2,0.5391913187613682,21,Female,2019-08-07,2,1,27,27,189,3
10,delay,20,2,2,0.4975353831659959,21,Female,2019-08-07,2,1,28,28,190,3
10,delay,0,2,2,0.5028752059515682,21,Female,2019-08-07,2,1,29,29,191,3
10,delay,43,1,1,1.0365461416522521,21,Female,2019-08-07,2,1,30,30,192,3
10,delay,31,2,1,2.0551305552808117,21,Female,2019-08-07,3,2,0,0,193,1
10,delay,38,1,2,1.8102197115549643,21,Female,2019-08-07,3,2,1,1,194,1
10,delay,10,2,2,2.6951400532461776,21,Female,2019-08-07,3,2,2,2,195,1
10,delay,14,2,2,0.497137161190949,21,Female,2019-08-07,3,2,3,3,196,1
10,delay,63,1,2,0.5507385193504888,21,Female,2019-08-07,3,2,4,4,197,1
10,delay,4,2,1,2.0614606769713646,21,Female,2019-08-07,3,2,5,5,198,1
10,delay,12,2,2,0.6485344782004177,21,Female,2019-08-07,3,2,6,6,199,1
10,delay,37,1,1,0.5561772792725606,21,Female,2019-08-07,3,2,7,7,200,1
10,delay,48,1,2,0.5151900968867267,21,Female,2019-08-07,3,2,8,8,201,1
10,delay,30,2,1,2.2142718675031574,21,Female,2019-08-07,3,2,9,9,202,1
10,delay,24,2,2,0.9170133846482713,21,Female,2019-08-07,3,2,10,10,203,1
10,delay,42,1,1,1.5087097144214567,21,Female,2019-08-07,3,2,11,11,204,1
10,delay,21,2,2,0.466286397658223,21,Female,2019-08-07,3,2,12,12,205,1
10,delay,2,2,1,0.7114798305819932,21,Female,2019-08-07,3,2,13,13,206,1
10,delay,33,1,2,1.618278265025765,21,Female,2019-08-07,3,2,14,14,207,1
10,delay,59,1,2,0.850556073086409,21,Female,2019-08-07,3,2,15,15,208,1
10,delay,3,2,2,1.6808467287519306,21,Female,2019-08-07,3,2,16,16,209,1
10,delay,19,2,2,1.1069362044072477,21,Female,2019-08-07,3,2,17,17,210,1
10,delay,27,2,2,0.9826674503310642,21,Female,2019-08-07,3,2,18,18,211,1
10,delay,16,2,2,0.5197467703974326,21,Female,2019-08-07,3,2,19,19,212,1
10,delay,32,1,2,0.5576814329306217,21,Female,2019-08-07,3,2,20,20,213,1
10,delay,58,1,2,0.6767581515696293,21,Female,2019-08-07,3,2,21,21,214,1
10,delay,39,1,1,3.406631632614335,21,Female,2019-08-07,3,2,22,22,215,1
10,delay,55,1,1,1.052153474996885,21,Female,2019-08-07,3,2,23,23,216,1
10,delay,41,1,1,0.7189690626664742,21,Female,2019-08-07,3,2,24,24,217,1
10,delay,44,1,2,1.65795082020486,21,Female,2019-08-07,3,2,25,25,218,1
10,delay,1,2,1,2.955000298357845,21,Female,2019-08-07,3,2,26,26,219,1
10,delay,22,2,1,1.0033128481927633,21,Female,2019-08-07,3,2,27,27,220,1
10,delay,25,2,1,1.4850390044202868,21,Female,2019-08-07,3,2,28,28,221,1
10,delay,56,1,2,1.150385993963937,21,Female,2019-08-07,3,2,29,29,222,1
10,delay,53,1,1,4.0557622070646175,21,Female,2019-08-07,3,2,30,30,223,1
10,delay,45,1,1,0.7947351220964265,21,Female,2019-08-07,3,2,31,31,224,1
10,delay,15,2,2,0.8710978961335059,21,Female,2019-08-07,3,2,32,32,225,1
10,delay,6,2,2,0.853822853674501,21,Female,2019-08-07,3,2,33,33,226,1
10,delay,60,1,1,0.5320397096566012,21,Female,2019-08-07,3,2,34,34,227,1
10,delay,40,1,1,1.5464826765719408,21,Female,2019-08-07,3,2,35,35,228,1
10,delay,47,1,1,0.45715017142356373,21,Female,2019-08-07,3,2,36,36,229,1
10,delay,54,1,1,0.3975624981258079,21,Female,2019-08-07,3,2,37,37,230,1
10,delay,28,2,2,0.867968390821261,21,Female,2019-08-07,3,2,38,38,231,1
10,delay,8,2,2,0.41869206960109295,21,Female,2019-08-07,3,2,39,39,232,1
10,delay,23,2,2,0.8384610081020583,21,Female,2019-08-07,3,2,40,40,233,1
10,delay,0,2,2,1.7802881358602463,21,Female,2019-08-07,3,2,41,41,234,1
10,delay,62,1,1,0.6485122173453419,21,Female,2019-08-07,3,2,42,42,235,1
10,delay,62,1,1,1.8060052987020754,21,Female,2019-08-07,4,3,0,0,236,4
10,delay,28,1,1,0.7389605478892918,21,Female,2019-08-07,4,3,1,1,237,4
10,delay,55,1,2,1.3465109354910965,21,Female,2019-08-07,4,3,2,2,238,4
10,delay,6,1,1,1.4043038272902777,21,Female,2019-08-07,4,3,3,3,239,4
10,delay,0,2,2,1.0265797710035258,21,Female,2019-08-07,4,3,4,4,240,4
10,delay,41,2,2,0.7089819770544636,21,Female,2019-08-07,4,3,5,5,241,4
10,delay,50,2,2,0.44738105669239303,21,Female,2019-08-07,4,3,6,6,242,4
10,delay,24,2,2,0.419958774132283,21,Female,2019-08-07,4,3,7,7,243,4
10,delay,45,1,1,1.5753256345815316,21,Female,2019-08-07,4,3,8,8,244,4
10,delay,32,2,2,0.6947152419152189,21,Female,2019-08-07,4,3,9,9,245,4
10,delay,12,1,1,1.9529958938001073,21,Female,2019-08-07,4,3,10,10,246,4
10,delay,46,1,1,0.7772377802584742,21,Female,2019-08-07,4,3,11,11,247,4
10,delay,2,2,2,0.6139639875000285,21,Female,2019-08-07,4,3,12,12,248,4
10,delay,26,2,2,0.5581031524770879,21,Female,2019-08-07,4,3,13,13,249,4
10,delay,3,2,2,0.5811434474089765,21,Female,2019-08-07,4,3,14,14,250,4
10,delay,39,1,2,1.7440267476549707,21,Female,2019-08-07,0,4,0,0,251,5
10,delay,58,1,2,1.2516364047851312,21,Female,2019-08-07,0,4,1,1,252,5
10,delay,48,2,1,1.0992642477976915,21,Female,2019-08-07,0,4,2,2,253,5
10,delay,12,2,2,1.7430148062521766,21,Female,2019-08-07,0,4,3,3,254,5
10,delay,17,2,1,2.3382323705618546,21,Female,2019-08-07,0,4,4,4,255,5
10,delay,45,2,1,1.875970240946117,21,Female,2019-08-07,0,4,5,5,256,5
10,delay,60,2,2,1.4512031219610435,21,Female,2019-08-07,0,4,6,6,257,5
10,delay,8,2,2,1.4635535684310526,21,Female,2019-08-07,0,4,7,7,258,5
10,delay,37,2,1,0.8364040431897592,21,Female,2019-08-07,0,4,8,8,259,5
10,delay,4,2,1,2.2261687490354234,21,Female,2019-08-07,0,4,9,9,260,5
10,delay,29,2,2,1.7428048740139275,21,Female,2019-08-07,0,4,10,10,261,5
10,delay,16,2,2,0.5460349860268252,21,Female,2019-08-07,0,4,11,11,262,5
10,delay,32,2,1,0.6807462457218207,21,Female,2019-08-07,0,4,12,12,263,5
10,delay,47,1,2,1.2669642407181527,21,Female,2019-08-07,0,4,13,13,264,5
10,delay,56,2,2,0.8192174257983424,21,Female,2019-08-07,0,4,14,14,265,5
10,delay,13,2,2,0.6242812758073342,21,Female,2019-08-07,0,4,15,15,266,5
10,delay,46,1,2,0.6809926610285402,21,Female,2019-08-07,0,4,16,16,267,5
10,delay,1,2,2,1.362942538857169,21,Female,2019-08-07,0,4,17,17,268,5
10,delay,59,1,1,2.7011940784886974,21,Female,2019-08-07,0,4,18,18,269,5
10,delay,57,2,1,2.0186886068013337,21,Female,2019-08-07,0,4,19,19,270,5
10,delay,7,1,2,1.1485238115410539,21,Female,2019-08-07,0,4,20,20,271,5
10,delay,38,1,2,2.209895445089387,21,Female,2019-08-07,0,4,21,21,272,5
10,delay,51,1,2,2.027029316619519,21,Female,2019-08-07,0,4,22,22,273,5
10,delay,36,2,1,2.2771127175337824,21,Female,2019-08-07,0,4,23,23,274,5
10,delay,41,2,2,2.517330849186692,21,Female,2019-08-07,0,4,24,24,275,5
10,delay,33,2,2,0.4434133683243999,21,Female,2019-08-07,0,4,25,25,276,5
10,delay,9,2,2,0.4154577527606307,21,Female,2019-08-07,0,4,26,26,277,5
10,delay,3,1,2,0.7547373110801345,21,Female,2019-08-07,0,4,27,27,278,5
10,delay,31,1,2,0.4622843904708134,21,Female,2019-08-07,0,4,28,28,279,5
10,delay,20,2,2,4.2267453670365285,21,Female,2019-08-07,0,4,29,29,280,5
10,delay,0,2,2,0.7203894289377786,21,Female,2019-08-07,0,4,30,30,281,5
10,delay,6,1,2,0.5871835596153687,21,Female,2019-08-07,0,4,31,31,282,5
10,delay,54,1,2,0.8827792802139811,21,Female,2019-08-07,0,4,32,32,283,5
10,delay,34,1,2,1.4733891565520025,21,Female,2019-08-07,0,4,33,33,284,5
10,delay,28,2,2,1.1605279780314959,21,Female,2019-08-07,0,4,34,34,285,5
10,delay,26,1,2,0.48924908877324924,21,Female,2019-08-07,0,4,35,35,286,5
10,delay,19,1,2,1.5346015631448608,21,Female,2019-08-07,0,4,36,36,287,5
10,delay,5,2,2,1.4688139323279756,21,Female,2019-08-07,0,4,37,37,288,5
10,delay,63,1,2,0.6816314239185886,21,Female,2019-08-07,0,4,38,38,289,5
10,delay,61,2,1,2.8997182455850634,21,Female,2019-08-07,0,4,39,39,290,5
10,delay,50,1,2,1.3442792846972225,21,Female,2019-08-07,0,4,40,40,291,5
10,delay,49,2,1,2.1541712669859407,21,Female,2019-08-07,0,4,41,41,292,5
10,delay,21,2,1,1.2872952039915617,21,Female,2019-08-07,0,4,42,42,293,5
10,delay,43,1,1,2.618733066677123,21,Female,2019-08-07,0,4,43,43,294,5
10,delay,11,1,2,0.9894199099235266,21,Female,2019-08-07,0,4,44,44,295,5
10,delay,44,2,1,1.8326048571325373,21,Female,2019-08-07,0,4,45,45,296,5
10,delay,10,1,2,1.8380575300907367,21,Female,2019-08-07,0,4,46,46,297,5
10,delay,52,2,1,2.0196384033151844,21,Female,2019-08-07,0,4,47,47,298,5
10,delay,27,1,1,1.4855386369617918,21,Female,2019-08-07,0,4,48,48,299,5
10,delay,55,1,1,0.8427845609830911,21,Female,2019-08-07,0,4,49,49,300,5
10,delay,35,1,2,0.7127335496134037,21,Female,2019-08-07,0,4,50,50,301,5
10,delay,42,1,2,1.6035826992338116,21,Female,2019-08-07,0,4,51,51,302,5
10,delay,18,1,2,3.075623218937835,21,Female,2019-08-07,0,4,52,52,303,5
10,delay,23,1,2,0.7933314514666563,21,Female,2019-08-07,0,4,53,53,304,5
10,delay,62,1,1,0.6141974173078779,21,Female,2019-08-07,0,4,54,54,305,5
10,delay,25,2,1,0.5744277800640702,21,Female,2019-08-07,0,4,55,55,306,5
10,delay,22,1,1,1.449564166453456,21,Female,2019-08-07,0,4,56,56,307,5
10,delay,14,1,1,0.37392641612314037,21,Female,2019-08-07,0,4,57,57,308,5
10,delay,53,2,2,1.3684561199879681,21,Female,2019-08-07,0,4,58,58,309,5
10,delay,40,2,1,1.042435683903932,21,Female,2019-08-07,0,4,59,59,310,5
10,delay,2,1,1,1.2211220275194137,21,Female,2019-08-07,0,4,60,60,311,5
10,delay,30,1,1,1.6439490510838368,21,Female,2019-08-07,0,4,61,61,312,5
10,delay,24,2,1,1.9329314424385302,21,Female,2019-08-07,0,4,62,62,313,5
10,delay,15,1,2,0.9809567653992417,21,Female,2019-08-07,0,4,63,63,314,5
10,delay,50,1,2,1.2216006359185485,21,Female,2019-08-07,0,4,64,0,315,5
10,delay,27,1,1,0.5246107673901861,21,Female,2019-08-07,0,4,65,1,316,5
10,delay,5,2,2,1.827037478933562,21,Female,2019-08-07,0,4,66,2,317,5
10,delay,22,1,2,0.5187425584581433,21,Female,2019-08-07,0,4,67,3,318,5
10,delay,59,1,2,4.060677218518322,21,Female,2019-08-07,0,4,68,4,319,5
10,delay,49,2,2,0.7511394002622183,21,Female,2019-08-07,0,4,69,5,320,5
10,delay,28,2,1,0.6492341492657943,21,Female,2019-08-07,0,4,70,6,321,5
10,delay,58,1,2,0.9782010569579143,21,Female,2019-08-07,0,4,71,7,322,5
10,delay,0,2,2,0.8029503054222005,21,Female,2019-08-07,0,4,72,8,323,5
10,delay,36,2,1,1.3917023278363558,21,Female,2019-08-07,0,4,73,9,324,5
10,delay,12,2,2,1.206060703498224,21,Female,2019-08-07,0,4,74,10,325,5
10,delay,43,1,2,1.7085234652604413,21,Female,2019-08-07,0,4,75,11,326,5
10,delay,20,2,1,3.086983984860126,21,Female,2019-08-07,0,4,76,12,327,5
10,delay,34,1,1,1.0766923583742027,21,Female,2019-08-07,0,4,77,13,328,5
10,delay,44,2,1,0.44029932194007415,21,Female,2019-08-07,0,4,78,14,329,5
10,delay,61,2,2,0.8398739540880342,21,Female,2019-08-07,0,4,79,15,330,5
10,delay,41,2,1,1.3978991935700833,21,Female,2019-08-07,0,4,80,16,331,5
10,delay,21,2,2,0.5927506286370772,21,Female,2019-08-07,0,4,81,17,332,5
10,delay,31,1,2,0.42496808504438377,21,Female,2019-08-07,0,4,82,18,333,5
10,delay,30,1,2,0.9307180331788913,21,Female,2019-08-07,0,4,83,19,334,5
