sub_num,condition,stim_id,cat,resp,rt,age,gender,date,prob_num,num_problems_solved,current_trial_prob,current_trial_stim,current_trial_exp,relevant_dim
27,immediate,38,1,2,2.259660435484193,18,Female,2019-09-13,0,0,0,0,0,5
27,immediate,57,2,2,1.460118143271984,18,Female,2019-09-13,0,0,1,1,1,5
27,immediate,46,1,2,1.8411422536264581,18,Female,2019-09-13,0,0,2,2,2,5
27,immediate,29,2,2,1.5746140370729336,18,Female,2019-09-13,0,0,3,3,3,5
27,immediate,24,2,2,0.7580582727189267,18,Female,2019-09-13,0,0,4,4,4,5
27,immediate,44,2,1,0.5782051448532002,18,Female,2019-09-13,0,0,5,5,5,5
27,immediate,7,1,1,0.7612112746253388,18,Female,2019-09-13,0,0,6,6,6,5
27,immediate,37,2,1,0.5813065139573155,18,Female,2019-09-13,0,0,7,7,7,5
27,immediate,18,1,2,1.1646937989312391,18,Female,2019-09-13,0,0,8,8,8,5
27,immediate,54,1,2,0.610139878517657,18,Female,2019-09-13,0,0,9,9,9,5
27,immediate,12,2,1,0.5535803174520879,18,Female,2019-09-13,0,0,10,10,10,5
27,immediate,8,2,2,1.2807776332883805,18,Female,2019-09-13,0,0,11,11,11,5
27,immediate,55,1,1,0.5210188790549637,18,Female,2019-09-13,0,0,12,12,12,5
27,immediate,30,1,1,1.0230576018016109,18,Female,2019-09-13,0,0,13,13,13,5
27,immediate,6,1,1,0.5130516593917491,18,Female,2019-09-13,0,0,14,14,14,5
27,immediate,47,1,1,0.5831649856634158,18,Female,2019-09-13,0,0,15,15,15,5
27,immediate,11,1,1,0.5751792152927919,18,Female,2019-09-13,0,0,16,16,16,5
27,immediate,1,2,2,0.6300704494033198,18,Female,2019-09-13,0,0,17,17,17,5
27,immediate,19,1,1,0.5109974777221851,18,Female,2019-09-13,0,0,18,18,18,5
27,immediate,52,2,2,0.7409551388243472,18,Female,2019-09-13,0,0,19,19,19,5
27,immediate,25,2,2,0.6399168557293251,18,Female,2019-09-13,0,0,20,20,20,5
27,immediate,31,1,1,0.5369279657479638,18,Female,2019-09-13,0,0,21,21,21,5
27,immediate,61,2,2,0.4800011006752811,18,Female,2019-09-13,0,0,22,22,22,5
27,immediate,29,2,1,1.3662005492246863,18,Female,2019-09-13,1,1,0,0,23,1
27,immediate,47,1,1,0.9084037178092785,18,Female,2019-09-13,1,1,1,1,24,1
27,immediate,24,2,2,0.7314330606998283,18,Female,2019-09-13,1,1,2,2,25,1
27,immediate,61,1,2,0.5759543256849611,18,Female,2019-09-13,1,1,3,3,26,1
27,immediate,34,1,2,0.4551193459762999,18,Female,2019-09-13,1,1,4,4,27,1
27,immediate,46,1,2,0.7638046635242972,18,Female,2019-09-13,1,1,5,5,28,1
27,immediate,58,1,1,0.6956635866308716,18,Female,2019-09-13,1,1,6,6,29,1
27,immediate,10,2,1,0.5571395798510821,18,Female,2019-09-13,1,1,7,7,30,1
27,immediate,4,2,2,0.8362188958742536,18,Female,2019-09-13,1,1,8,8,31,1
27,immediate,30,2,2,0.6100882457153602,18,Female,2019-09-13,1,1,9,9,32,1
27,immediate,20,2,2,1.162023115418151,18,Female,2019-09-13,1,1,10,10,33,1
27,immediate,5,2,2,0.6392818031783918,18,Female,2019-09-13,1,1,11,11,34,1
27,immediate,13,2,2,0.5142058225724213,18,Female,2019-09-13,1,1,12,12,35,1
27,immediate,39,1,1,0.391993452836914,18,Female,2019-09-13,1,1,13,13,36,1
27,immediate,54,1,1,0.39539225161684044,18,Female,2019-09-13,1,1,14,14,37,1
27,immediate,41,1,1,0.43040887614233725,18,Female,2019-09-13,1,1,15,15,38,1
27,immediate,23,2,2,0.4983335281156087,18,Female,2019-09-13,1,1,16,16,39,1
27,immediate,2,2,2,0.5205949953901836,18,Female,2019-09-13,1,1,17,17,40,1
27,immediate,37,1,1,0.5107331301412614,18,Female,2019-09-13,1,1,18,18,41,1
27,immediate,55,1,1,0.38870286651717834,18,Female,2019-09-13,1,1,19,19,42,1
27,immediate,8,1,2,0.916788637568061,18,Female,2019-09-13,2,2,0,0,43,3
27,immediate,46,1,2,1.220725592370627,18,Female,2019-09-13,2,2,1,1,44,3
27,immediate,15,1,1,0.5872173877016849,18,Female,2019-09-13,2,2,2,2,45,3
27,immediate,60,1,1,1.0587129890197957,18,Female,2019-09-13,2,2,3,3,46,3
27,immediate,4,2,2,0.39010715506969973,18,Female,2019-09-13,2,2,4,4,47,3
27,immediate,26,1,1,0.6488397460036595,18,Female,2019-09-13,2,2,5,5,48,3
27,immediate,5,2,2,0.5461705465470459,18,Female,2019-09-13,2,2,6,6,49,3
27,immediate,23,2,2,0.4728494937819505,18,Female,2019-09-13,2,2,7,7,50,3
27,immediate,16,2,2,0.6215513461938826,18,Female,2019-09-13,2,2,8,8,51,3
27,immediate,6,2,2,0.454538708833752,18,Female,2019-09-13,2,2,9,9,52,3
27,immediate,53,2,2,0.5229286743851844,18,Female,2019-09-13,2,2,10,10,53,3
27,immediate,39,2,2,0.36903107800003454,18,Female,2019-09-13,2,2,11,11,54,3
27,immediate,56,1,1,0.5314097486441369,18,Female,2019-09-13,2,2,12,12,55,3
27,immediate,13,1,1,0.5541241623582209,18,Female,2019-09-13,2,2,13,13,56,3
27,immediate,60,1,1,1.180400992092018,18,Female,2019-09-13,3,3,0,0,57,2
27,immediate,62,1,1,1.1057773704867486,18,Female,2019-09-13,3,3,1,1,58,2
27,immediate,49,1,1,0.5339765481955965,18,Female,2019-09-13,3,3,2,2,59,2
27,immediate,46,2,2,0.4607111475529564,18,Female,2019-09-13,3,3,3,3,60,2
27,immediate,11,2,2,0.6892450418597491,18,Female,2019-09-13,3,3,4,4,61,2
27,immediate,5,2,2,0.4594323854541926,18,Female,2019-09-13,3,3,5,5,62,2
27,immediate,34,2,2,0.4479770144366739,18,Female,2019-09-13,3,3,6,6,63,2
27,immediate,4,2,2,0.579859249599167,18,Female,2019-09-13,3,3,7,7,64,2
27,immediate,51,1,1,0.40596739156649164,18,Female,2019-09-13,3,3,8,8,65,2
27,immediate,10,2,2,0.7866306906614682,18,Female,2019-09-13,3,3,9,9,66,2
27,immediate,36,2,2,0.5582758106813799,18,Female,2019-09-13,3,3,10,10,67,2
27,immediate,0,2,2,0.4696309460427983,18,Female,2019-09-13,3,3,11,11,68,2
27,immediate,12,2,2,0.9009596280955066,18,Female,2019-09-13,4,4,0,0,69,6
27,immediate,36,2,2,0.9484148111321247,18,Female,2019-09-13,4,4,1,1,70,6
27,immediate,56,2,1,0.43682061898743996,18,Female,2019-09-13,4,4,2,2,71,6
27,immediate,47,1,1,1.9418460056308504,18,Female,2019-09-13,4,4,3,3,72,6
27,immediate,61,1,1,0.46150820961543104,18,Female,2019-09-13,4,4,4,4,73,6
27,immediate,10,2,2,0.4178689070974997,18,Female,2019-09-13,4,4,5,5,74,6
27,immediate,38,2,2,2.11766342709484,18,Female,2019-09-13,4,4,6,6,75,6
27,immediate,40,2,2,0.5452832043749822,18,Female,2019-09-13,4,4,7,7,76,6
27,immediate,0,2,2,0.44974025917804283,18,Female,2019-09-13,4,4,8,8,77,6
27,immediate,23,1,1,0.5502733446739967,18,Female,2019-09-13,4,4,9,9,78,6
27,immediate,44,2,2,0.5730536133996793,18,Female,2019-09-13,4,4,10,10,79,6
27,immediate,30,2,2,0.6766052081727594,18,Female,2019-09-13,4,4,11,11,80,6
27,immediate,58,2,2,0.5583824772490971,18,Female,2019-09-13,4,4,12,12,81,6
27,immediate,13,1,1,0.6134703488585274,18,Female,2019-09-13,4,4,13,13,82,6
27,immediate,5,1,1,0.941604537255671,18,Female,2019-09-13,4,4,14,14,83,6
27,immediate,39,1,2,1.8891669433812694,18,Female,2019-09-13,0,5,0,0,84,5
27,immediate,3,1,2,0.4481956036061092,18,Female,2019-09-13,0,5,1,1,85,5
27,immediate,4,2,1,1.0727762803235237,18,Female,2019-09-13,0,5,2,2,86,5
27,immediate,55,1,2,0.9161761550442407,18,Female,2019-09-13,0,5,3,3,87,5
27,immediate,40,2,2,1.2835571476184668,18,Female,2019-09-13,0,5,4,4,88,5
27,immediate,18,1,2,1.6279479392946996,18,Female,2019-09-13,0,5,5,5,89,5
27,immediate,29,2,1,1.0204620486535987,18,Female,2019-09-13,0,5,6,6,90,5
27,immediate,26,1,2,0.8465575143040951,18,Female,2019-09-13,0,5,7,7,91,5
27,immediate,41,2,1,2.716340514312151,18,Female,2019-09-13,0,5,8,8,92,5
27,immediate,17,2,2,0.8066200054538513,18,Female,2019-09-13,0,5,9,9,93,5
27,immediate,19,1,2,2.03571474948194,18,Female,2019-09-13,0,5,10,10,94,5
27,immediate,16,2,2,1.5339119298980677,18,Female,2019-09-13,0,5,11,11,95,5
27,immediate,58,1,1,0.6521974240488362,18,Female,2019-09-13,0,5,12,12,96,5
27,immediate,24,2,2,0.9658564954374924,18,Female,2019-09-13,0,5,13,13,97,5
27,immediate,47,1,1,0.5185358668652498,18,Female,2019-09-13,0,5,14,14,98,5
27,immediate,9,2,2,0.8119607541232199,18,Female,2019-09-13,0,5,15,15,99,5
27,immediate,52,2,2,0.6814154066098581,18,Female,2019-09-13,0,5,16,16,100,5
27,immediate,48,2,2,0.7708270338221155,18,Female,2019-09-13,0,5,17,17,101,5
27,immediate,56,2,2,0.5432651965850255,18,Female,2019-09-13,0,5,18,18,102,5
27,immediate,61,2,2,0.5820612185714253,18,Female,2019-09-13,0,5,19,19,103,5
27,immediate,33,2,2,0.5563783824895836,18,Female,2019-09-13,0,5,20,20,104,5
27,immediate,28,2,2,0.5633339702412741,18,Female,2019-09-13,0,5,21,21,105,5
27,immediate,42,1,1,0.7303311486784878,18,Female,2019-09-13,0,5,22,22,106,5
27,immediate,53,1,2,1.4093062097258553,18,Female,2019-09-13,1,6,0,0,107,1
27,immediate,50,1,2,0.380017425297865,18,Female,2019-09-13,1,6,1,1,108,1
27,immediate,19,2,1,0.9273365698136331,18,Female,2019-09-13,1,6,2,2,109,1
27,immediate,11,2,2,0.62299644630275,18,Female,2019-09-13,1,6,3,3,110,1
27,immediate,24,2,1,0.3916320232201542,18,Female,2019-09-13,1,6,4,4,111,1
27,immediate,38,1,1,0.5066080711658287,18,Female,2019-09-13,1,6,5,5,112,1
27,immediate,48,1,2,0.48025833715155386,18,Female,2019-09-13,1,6,6,6,113,1
27,immediate,9,2,1,0.5975662090208971,18,Female,2019-09-13,1,6,7,7,114,1
27,immediate,23,2,1,1.3395320522217844,18,Female,2019-09-13,1,6,8,8,115,1
27,immediate,37,1,2,1.1575162210478993,18,Female,2019-09-13,1,6,9,9,116,1
27,immediate,59,1,2,0.8263706344773709,18,Female,2019-09-13,1,6,10,10,117,1
27,immediate,7,2,2,0.4884407450213075,18,Female,2019-09-13,1,6,11,11,118,1
27,immediate,39,1,1,0.5210865891367575,18,Female,2019-09-13,1,6,12,12,119,1
27,immediate,51,1,1,0.5751013023214,18,Female,2019-09-13,1,6,13,13,120,1
27,immediate,5,2,1,0.6104710086451632,18,Female,2019-09-13,1,6,14,14,121,1
27,immediate,42,1,1,0.3467634271564748,18,Female,2019-09-13,1,6,15,15,122,1
27,immediate,40,1,2,0.5406616047971511,18,Female,2019-09-13,1,6,16,16,123,1
27,immediate,47,1,1,0.41912417163348437,18,Female,2019-09-13,1,6,17,17,124,1
27,immediate,57,1,1,0.534853996657148,18,Female,2019-09-13,1,6,18,18,125,1
27,immediate,60,1,1,0.525403338756405,18,Female,2019-09-13,1,6,19,19,126,1
27,immediate,46,1,1,0.5753597755115152,18,Female,2019-09-13,1,6,20,20,127,1
27,immediate,34,1,1,0.5029214272421996,18,Female,2019-09-13,1,6,21,21,128,1
27,immediate,14,2,2,0.47633177074567357,18,Female,2019-09-13,1,6,22,22,129,1
27,immediate,33,1,1,0.9294451668915826,18,Female,2019-09-13,1,6,23,23,130,1
27,immediate,13,2,2,0.8012993533843655,18,Female,2019-09-13,1,6,24,24,131,1
27,immediate,36,1,1,0.7179905997381866,18,Female,2019-09-13,1,6,25,25,132,1
27,immediate,4,2,2,0.8888707504197555,18,Female,2019-09-13,1,6,26,26,133,1
27,immediate,0,2,2,0.391757858852543,18,Female,2019-09-13,1,6,27,27,134,1
27,immediate,43,1,1,0.7304990325806102,18,Female,2019-09-13,1,6,28,28,135,1
27,immediate,28,1,2,1.4224926709248393,18,Female,2019-09-13,2,7,0,0,136,3
27,immediate,52,2,1,0.9541061681720748,18,Female,2019-09-13,2,7,1,1,137,3
27,immediate,5,2,1,1.2906453729278837,18,Female,2019-09-13,2,7,2,2,138,3
27,immediate,51,2,2,1.5709419245367826,18,Female,2019-09-13,2,7,3,3,139,3
27,immediate,36,2,1,0.6900173696458296,18,Female,2019-09-13,2,7,4,4,140,3
27,immediate,20,2,2,1.5960895727093884,18,Female,2019-09-13,2,7,5,5,141,3
27,immediate,38,2,2,0.539821566928822,18,Female,2019-09-13,2,7,6,6,142,3
27,immediate,46,1,1,0.8182358400904377,18,Female,2019-09-13,2,7,7,7,143,3
27,immediate,59,1,1,0.8953310342826626,18,Female,2019-09-13,2,7,8,8,144,3
27,immediate,11,1,1,0.6863075373375978,18,Female,2019-09-13,2,7,9,9,145,3
27,immediate,56,1,1,0.8245443173309468,18,Female,2019-09-13,2,7,10,10,146,3
27,immediate,3,2,2,0.6300107779611608,18,Female,2019-09-13,2,7,11,11,147,3
27,immediate,25,1,2,2.4145789391345716,18,Female,2019-09-13,2,7,12,12,148,3
27,immediate,12,1,1,0.7698800202078928,18,Female,2019-09-13,2,7,13,13,149,3
27,immediate,27,1,1,0.6055154963337372,18,Female,2019-09-13,2,7,14,14,150,3
27,immediate,29,1,1,0.5018541432077654,18,Female,2019-09-13,2,7,15,15,151,3
27,immediate,45,1,1,0.5714022912598011,18,Female,2019-09-13,2,7,16,16,152,3
27,immediate,24,1,1,0.6430509977499241,18,Female,2019-09-13,2,7,17,17,153,3
27,immediate,53,2,2,0.5878233774778892,18,Female,2019-09-13,2,7,18,18,154,3
27,immediate,19,2,2,0.7554398403649429,18,Female,2019-09-13,2,7,19,19,155,3
27,immediate,57,1,1,0.8954812950128144,18,Female,2019-09-13,2,7,20,20,156,3
27,immediate,42,1,1,0.6704367887737135,18,Female,2019-09-13,2,7,21,21,157,3
27,immediate,30,1,1,0.9361759819043982,18,Female,2019-09-13,2,7,22,22,158,3
27,immediate,14,1,1,0.4797890042536892,18,Female,2019-09-13,2,7,23,23,159,3
27,immediate,9,1,1,0.4850153568941096,18,Female,2019-09-13,2,7,24,24,160,3
27,immediate,11,2,2,1.5138944798659395,18,Female,2019-09-13,3,8,0,0,161,2
27,immediate,44,2,1,1.6559728021893534,18,Female,2019-09-13,3,8,1,1,162,2
27,immediate,28,1,2,0.5531307719757024,18,Female,2019-09-13,3,8,2,2,163,2
27,immediate,7,2,1,0.8959852558978127,18,Female,2019-09-13,3,8,3,3,164,2
27,immediate,46,2,2,0.5268574050405732,18,Female,2019-09-13,3,8,4,4,165,2
27,immediate,62,1,2,0.5013078248739475,18,Female,2019-09-13,3,8,5,5,166,2
27,immediate,50,1,1,1.2270090261558835,18,Female,2019-09-13,3,8,6,6,167,2
27,immediate,17,1,1,0.5457194551781868,18,Female,2019-09-13,3,8,7,7,168,2
27,immediate,23,1,1,0.5366874249084503,18,Female,2019-09-13,3,8,8,8,169,2
27,immediate,19,1,1,0.6709014839948395,18,Female,2019-09-13,3,8,9,9,170,2
27,immediate,33,2,2,0.7287017782086878,18,Female,2019-09-13,3,8,10,10,171,2
27,immediate,43,2,2,0.5800292977505705,18,Female,2019-09-13,3,8,11,11,172,2
27,immediate,21,1,1,0.651234333154207,18,Female,2019-09-13,3,8,12,12,173,2
27,immediate,36,2,2,1.1089708747713303,18,Female,2019-09-13,3,8,13,13,174,2
27,immediate,61,1,1,0.7450931832950118,18,Female,2019-09-13,3,8,14,14,175,2
27,immediate,56,1,1,0.628719339545114,18,Female,2019-09-13,3,8,15,15,176,2
27,immediate,47,2,2,0.7973437242026193,18,Female,2019-09-13,3,8,16,16,177,2
27,immediate,8,2,1,0.7781335391223365,18,Female,2019-09-13,3,8,17,17,178,2
27,immediate,60,1,1,0.6945137519487616,18,Female,2019-09-13,3,8,18,18,179,2
27,immediate,57,1,2,1.0086489581613023,18,Female,2019-09-13,3,8,19,19,180,2
27,immediate,53,1,1,0.402160168044702,18,Female,2019-09-13,3,8,20,20,181,2
27,immediate,31,1,1,0.5015687714917476,18,Female,2019-09-13,3,8,21,21,182,2
27,immediate,12,2,2,0.4753077716950429,18,Female,2019-09-13,3,8,22,22,183,2
27,immediate,3,2,2,0.43211956054619804,18,Female,2019-09-13,3,8,23,23,184,2
27,immediate,32,2,2,0.49971555581942084,18,Female,2019-09-13,3,8,24,24,185,2
27,immediate,41,2,2,0.617638074460956,18,Female,2019-09-13,3,8,25,25,186,2
27,immediate,59,1,1,0.6579005298699485,18,Female,2019-09-13,3,8,26,26,187,2
27,immediate,14,2,2,0.6189768171807373,18,Female,2019-09-13,3,8,27,27,188,2
27,immediate,10,2,2,0.5797068246197341,18,Female,2019-09-13,3,8,28,28,189,2
27,immediate,30,1,1,0.6832142068737994,18,Female,2019-09-13,3,8,29,29,190,2
27,immediate,4,2,2,0.6612025557928973,18,Female,2019-09-13,3,8,30,30,191,2
27,immediate,18,1,1,0.6707240155601539,18,Female,2019-09-13,3,8,31,31,192,2
27,immediate,13,1,1,1.829618554170338,18,Female,2019-09-13,4,9,0,0,193,6
27,immediate,1,1,1,0.7615615738172892,18,Female,2019-09-13,4,9,1,1,194,6
27,immediate,6,2,2,0.5171903222194487,18,Female,2019-09-13,4,9,2,2,195,6
27,immediate,31,1,1,0.683401878197401,18,Female,2019-09-13,4,9,3,3,196,6
27,immediate,47,1,1,0.6772452075792899,18,Female,2019-09-13,4,9,4,4,197,6
27,immediate,63,1,1,0.5103126474391502,18,Female,2019-09-13,4,9,5,5,198,6
27,immediate,12,2,2,0.4690453620446533,18,Female,2019-09-13,4,9,6,6,199,6
27,immediate,7,1,1,0.4733296479262208,18,Female,2019-09-13,4,9,7,7,200,6
27,immediate,38,2,2,0.638135369459178,18,Female,2019-09-13,4,9,8,8,201,6
27,immediate,56,2,2,0.5473392411154236,18,Female,2019-09-13,4,9,9,9,202,6
27,immediate,36,2,2,0.5700072780609844,18,Female,2019-09-13,4,9,10,10,203,6
27,immediate,29,1,1,0.5928274308071195,18,Female,2019-09-13,4,9,11,11,204,6
27,immediate,25,2,2,0.9760331043557926,18,Female,2019-09-13,0,10,0,0,205,5
27,immediate,53,2,1,1.0888884972628148,18,Female,2019-09-13,0,10,1,1,206,5
27,immediate,56,2,2,0.40474397241132465,18,Female,2019-09-13,0,10,2,2,207,5
27,immediate,61,2,2,0.5838832072195146,18,Female,2019-09-13,0,10,3,3,208,5
27,immediate,4,2,1,0.46348695174128807,18,Female,2019-09-13,0,10,4,4,209,5
27,immediate,19,1,1,0.4519647981774142,18,Female,2019-09-13,0,10,5,5,210,5
27,immediate,21,2,2,1.2407795254603116,18,Female,2019-09-13,0,10,6,6,211,5
27,immediate,59,1,1,0.6396333390839573,18,Female,2019-09-13,0,10,7,7,212,5
27,immediate,63,1,1,0.8248507131820588,18,Female,2019-09-13,0,10,8,8,213,5
27,immediate,44,2,2,0.4860835684639824,18,Female,2019-09-13,0,10,9,9,214,5
27,immediate,35,1,1,0.5390786110965564,18,Female,2019-09-13,0,10,10,10,215,5
27,immediate,22,1,1,0.497506475742739,18,Female,2019-09-13,0,10,11,11,216,5
27,immediate,51,1,1,0.5675289035480091,18,Female,2019-09-13,0,10,12,12,217,5
27,immediate,16,2,2,0.5905636261441032,18,Female,2019-09-13,0,10,13,13,218,5
27,immediate,33,2,2,1.1745667946047433,18,Female,2019-09-13,0,10,14,14,219,5
27,immediate,52,2,2,1.0645236889445187,18,Female,2019-09-13,0,10,15,15,220,5
27,immediate,57,2,2,0.5075600316349664,18,Female,2019-09-13,0,10,16,16,221,5
27,immediate,48,1,1,0.34090387703599845,18,Female,2019-09-13,1,11,0,0,222,1
27,immediate,37,1,2,0.5509232377912667,18,Female,2019-09-13,1,11,1,1,223,1
27,immediate,58,1,2,0.34964311530666237,18,Female,2019-09-13,1,11,2,2,224,1
27,immediate,43,1,1,0.6717486329671374,18,Female,2019-09-13,1,11,3,3,225,1
27,immediate,32,1,1,0.4893528214702201,18,Female,2019-09-13,1,11,4,4,226,1
27,immediate,4,2,2,0.4946790387521105,18,Female,2019-09-13,1,11,5,5,227,1
27,immediate,11,2,2,1.0760498618283236,18,Female,2019-09-13,1,11,6,6,228,1
27,immediate,47,1,2,0.8074217051935193,18,Female,2019-09-13,1,11,7,7,229,1
27,immediate,60,1,1,1.2011678907042551,18,Female,2019-09-13,1,11,8,8,230,1
27,immediate,22,2,2,0.5035920353157053,18,Female,2019-09-13,1,11,9,9,231,1
27,immediate,18,2,2,0.9413537935270142,18,Female,2019-09-13,1,11,10,10,232,1
27,immediate,39,1,1,1.1333486685848584,18,Female,2019-09-13,1,11,11,11,233,1
27,immediate,40,1,1,0.8339866274131964,18,Female,2019-09-13,1,11,12,12,234,1
27,immediate,38,1,1,0.5915128040073796,18,Female,2019-09-13,1,11,13,13,235,1
27,immediate,56,1,1,0.39131233269608856,18,Female,2019-09-13,1,11,14,14,236,1
27,immediate,59,1,1,0.41042512656258623,18,Female,2019-09-13,1,11,15,15,237,1
27,immediate,16,2,2,0.5578247193125208,18,Female,2019-09-13,1,11,16,16,238,1
27,immediate,52,1,1,0.7249087768964273,18,Female,2019-09-13,1,11,17,17,239,1
27,immediate,3,2,2,0.6718679758519102,18,Female,2019-09-13,1,11,18,18,240,1
27,immediate,24,2,2,0.5696631624377915,18,Female,2019-09-13,1,11,19,19,241,1
27,immediate,4,2,1,1.3016787153514997,18,Female,2019-09-13,2,12,0,0,242,3
27,immediate,57,1,1,0.6704377163091522,18,Female,2019-09-13,2,12,1,1,243,3
27,immediate,56,1,1,1.2081237876336672,18,Female,2019-09-13,2,12,2,2,244,3
27,immediate,39,2,1,0.7986002254529012,18,Female,2019-09-13,2,12,3,3,245,3
27,immediate,41,1,1,1.2433395230859787,18,Female,2019-09-13,2,12,4,4,246,3
27,immediate,43,1,1,0.4826056199985942,18,Female,2019-09-13,2,12,5,5,247,3
27,immediate,0,2,2,0.3598651734582745,18,Female,2019-09-13,2,12,6,6,248,3
27,immediate,5,2,2,0.44211066238995045,18,Female,2019-09-13,2,12,7,7,249,3
27,immediate,15,1,1,0.7656891062210889,18,Female,2019-09-13,2,12,8,8,250,3
27,immediate,14,1,1,1.6256878447725285,18,Female,2019-09-13,2,12,9,9,251,3
27,immediate,21,2,2,1.1622729316113691,18,Female,2019-09-13,2,12,10,10,252,3
27,immediate,49,2,2,0.5594655293848518,18,Female,2019-09-13,2,12,11,11,253,3
27,immediate,47,1,1,0.6467868010481652,18,Female,2019-09-13,2,12,12,12,254,3
27,immediate,53,2,2,0.49572375275874947,18,Female,2019-09-13,2,12,13,13,255,3
27,immediate,27,1,1,0.46929023138272896,18,Female,2019-09-13,2,12,14,14,256,3
27,immediate,3,2,2,0.8263236393518127,18,Female,2019-09-13,2,12,15,15,257,3
27,immediate,44,2,1,0.7310230900652641,18,Female,2019-09-13,3,13,0,0,258,2
27,immediate,20,1,2,0.5502164558379263,18,Female,2019-09-13,3,13,1,1,259,2
27,immediate,19,1,1,0.39694556418589855,18,Female,2019-09-13,3,13,2,2,260,2
27,immediate,11,2,2,0.7520076503114979,18,Female,2019-09-13,3,13,3,3,261,2
27,immediate,24,1,1,0.5238265286247952,18,Female,2019-09-13,3,13,4,4,262,2
27,immediate,7,2,2,0.4005017348004003,18,Female,2019-09-13,3,13,5,5,263,2
27,immediate,0,2,2,0.5635049459278889,18,Female,2019-09-13,3,13,6,6,264,2
27,immediate,6,2,2,0.5225993993281008,18,Female,2019-09-13,3,13,7,7,265,2
27,immediate,36,2,2,1.1046599995424913,18,Female,2019-09-13,3,13,8,8,266,2
27,immediate,15,2,2,0.708773989929341,18,Female,2019-09-13,3,13,9,9,267,2
27,immediate,53,1,1,0.39944867297481323,18,Female,2019-09-13,3,13,10,10,268,2
27,immediate,49,1,1,0.43444179993775833,18,Female,2019-09-13,3,13,11,11,269,2
27,immediate,54,1,1,0.4544555398288139,18,Female,2019-09-13,3,13,12,12,270,2
27,immediate,35,2,2,0.5391135482618665,18,Female,2019-09-13,3,13,13,13,271,2
27,immediate,44,2,2,1.188413351809686,18,Female,2019-09-13,4,14,0,0,272,6
27,immediate,26,2,1,0.938090414911585,18,Female,2019-09-13,4,14,1,1,273,6
27,immediate,23,1,1,0.9061822705939448,18,Female,2019-09-13,4,14,2,2,274,6
27,immediate,15,1,2,0.7936137952956415,18,Female,2019-09-13,4,14,3,3,275,6
27,immediate,25,1,1,1.430406093536476,18,Female,2019-09-13,4,14,4,4,276,6
27,immediate,40,2,2,0.9939908075057247,18,Female,2019-09-13,4,14,5,5,277,6
27,immediate,5,1,1,1.3153023548884448,18,Female,2019-09-13,4,14,6,6,278,6
27,immediate,27,1,1,1.564408365379677,18,Female,2019-09-13,4,14,7,7,279,6
27,immediate,22,2,1,0.5235275530567378,18,Female,2019-09-13,4,14,8,8,280,6
27,immediate,60,2,1,1.546407686423663,18,Female,2019-09-13,4,14,9,9,281,6
27,immediate,45,1,2,2.169223881686321,18,Female,2019-09-13,4,14,10,10,282,6
27,immediate,34,2,2,0.502843823448984,18,Female,2019-09-13,4,14,11,11,283,6
27,immediate,12,2,1,0.5245320738640658,18,Female,2019-09-13,4,14,12,12,284,6
27,immediate,38,2,2,0.6105764384988106,18,Female,2019-09-13,4,14,13,13,285,6
27,immediate,39,1,2,0.4588931782250256,18,Female,2019-09-13,4,14,14,14,286,6
27,immediate,41,1,2,1.631492051949408,18,Female,2019-09-13,4,14,15,15,287,6
27,immediate,30,2,2,0.9278884533596283,18,Female,2019-09-13,4,14,16,16,288,6
27,immediate,24,2,2,0.6556945415782138,18,Female,2019-09-13,4,14,17,17,289,6
27,immediate,0,2,2,0.6169544808922183,18,Female,2019-09-13,4,14,18,18,290,6
27,immediate,55,1,1,0.6892141240141427,18,Female,2019-09-13,4,14,19,19,291,6
27,immediate,56,2,1,1.099463637212466,18,Female,2019-09-13,4,14,20,20,292,6
27,immediate,50,2,1,0.7513008683586122,18,Female,2019-09-13,4,14,21,21,293,6
27,immediate,18,2,1,1.6267245201393052,18,Female,2019-09-13,4,14,22,22,294,6
27,immediate,16,2,2,0.42361437036743155,18,Female,2019-09-13,4,14,23,23,295,6
27,immediate,7,1,1,0.7153180611544485,18,Female,2019-09-13,4,14,24,24,296,6
27,immediate,54,2,2,1.206154630040146,18,Female,2019-09-13,4,14,25,25,297,6
27,immediate,53,1,2,0.5046222179353208,18,Female,2019-09-13,4,14,26,26,298,6
27,immediate,48,2,1,0.6065036306827096,18,Female,2019-09-13,4,14,27,27,299,6
27,immediate,49,1,1,1.398515572391716,18,Female,2019-09-13,4,14,28,28,300,6
27,immediate,20,2,2,1.2174755084288336,18,Female,2019-09-13,4,14,29,29,301,6
27,immediate,47,1,1,0.7443795994158791,18,Female,2019-09-13,4,14,30,30,302,6
27,immediate,21,1,1,1.0435737566854186,18,Female,2019-09-13,4,14,31,31,303,6
27,immediate,36,2,2,0.7260403700497591,18,Female,2019-09-13,4,14,32,32,304,6
27,immediate,37,1,1,0.9131792882590162,18,Female,2019-09-13,4,14,33,33,305,6
27,immediate,4,2,2,0.5604805622597269,18,Female,2019-09-13,4,14,34,34,306,6
27,immediate,42,2,1,2.119774497600247,18,Female,2019-09-13,4,14,35,35,307,6
27,immediate,43,1,1,0.5161060333698515,18,Female,2019-09-13,4,14,36,36,308,6
27,immediate,52,2,2,0.54773035186372,18,Female,2019-09-13,4,14,37,37,309,6
27,immediate,57,1,1,0.5224649066990423,18,Female,2019-09-13,4,14,38,38,310,6
27,immediate,51,1,1,0.7845350790785233,18,Female,2019-09-13,4,14,39,39,311,6
27,immediate,2,2,2,0.5888996276876242,18,Female,2019-09-13,4,14,40,40,312,6
27,immediate,32,2,2,0.7087637870404251,18,Female,2019-09-13,4,14,41,41,313,6
27,immediate,8,2,2,0.43144215054599044,18,Female,2019-09-13,4,14,42,42,314,6
27,immediate,61,1,1,0.4671269097179902,18,Female,2019-09-13,4,14,43,43,315,6
27,immediate,59,1,1,0.7119470884358634,18,Female,2019-09-13,4,14,44,44,316,6
27,immediate,1,1,1,0.9944734350779072,18,Female,2019-09-13,4,14,45,45,317,6
27,immediate,11,1,1,0.8357396692658767,18,Female,2019-09-13,4,14,46,46,318,6
27,immediate,46,2,2,0.6731223128526835,18,Female,2019-09-13,4,14,47,47,319,6
27,immediate,58,1,2,0.8159958421679221,18,Female,2019-09-13,0,15,0,0,320,5
27,immediate,56,2,1,0.7170278180224159,18,Female,2019-09-13,0,15,1,1,321,5
27,immediate,36,2,2,0.9359199821419679,18,Female,2019-09-13,0,15,2,2,322,5
27,immediate,15,1,1,0.3439953524293742,18,Female,2019-09-13,0,15,3,3,323,5
27,immediate,45,2,2,1.1259228204003193,18,Female,2019-09-13,0,15,4,4,324,5
27,immediate,0,2,2,0.5385548627900789,18,Female,2019-09-13,0,15,5,5,325,5
27,immediate,23,1,1,0.6889166943383316,18,Female,2019-09-13,0,15,6,6,326,5
27,immediate,16,2,2,0.7311238822426276,18,Female,2019-09-13,0,15,7,7,327,5
27,immediate,39,1,1,0.3103969294866147,18,Female,2019-09-13,0,15,8,8,328,5
27,immediate,21,2,2,1.0634678445130703,18,Female,2019-09-13,0,15,9,9,329,5
27,immediate,42,1,2,1.722769261972644,18,Female,2019-09-13,0,15,10,10,330,5
27,immediate,11,1,1,0.5093260589828787,18,Female,2019-09-13,0,15,11,11,331,5
27,immediate,59,1,1,0.5630634390909108,18,Female,2019-09-13,0,15,12,12,332,5
27,immediate,50,1,1,0.554329147675162,18,Female,2019-09-13,0,15,13,13,333,5
27,immediate,6,1,1,0.6409782653731781,18,Female,2019-09-13,0,15,14,14,334,5
27,immediate,3,1,1,0.6659595755349983,18,Female,2019-09-13,0,15,15,15,335,5
27,immediate,43,1,1,0.5634814483651098,18,Female,2019-09-13,0,15,16,16,336,5
27,immediate,14,1,1,0.49021852114992726,18,Female,2019-09-13,0,15,17,17,337,5
27,immediate,48,2,2,0.7997012099390304,18,Female,2019-09-13,0,15,18,18,338,5
27,immediate,1,2,2,0.940478818493375,18,Female,2019-09-13,0,15,19,19,339,5
27,immediate,47,1,1,0.6686806551369955,18,Female,2019-09-13,0,15,20,20,340,5
27,immediate,33,2,2,0.6907393013434557,18,Female,2019-09-13,0,15,21,21,341,5
27,immediate,55,1,1,0.5728041063844103,18,Female,2019-09-13,0,15,22,22,342,5
27,immediate,35,1,1,0.888688025951069,18,Female,2019-09-13,1,16,0,0,343,1
27,immediate,54,1,1,0.583715014138761,18,Female,2019-09-13,1,16,1,1,344,1
27,immediate,25,2,2,0.9270304831406975,18,Female,2019-09-13,1,16,2,2,345,1
27,immediate,8,2,2,0.7028884688188555,18,Female,2019-09-13,1,16,3,3,346,1
27,immediate,11,2,2,1.0494258865228403,18,Female,2019-09-13,1,16,4,4,347,1
27,immediate,23,2,2,0.987997073934821,18,Female,2019-09-13,1,16,5,5,348,1
27,immediate,33,1,1,0.9574480781157035,18,Female,2019-09-13,1,16,6,6,349,1
27,immediate,29,2,2,0.8298247762013489,18,Female,2019-09-13,1,16,7,7,350,1
27,immediate,16,2,2,0.5077371908914756,18,Female,2019-09-13,1,16,8,8,351,1
27,immediate,41,1,1,0.7533337167146783,18,Female,2019-09-13,1,16,9,9,352,1
27,immediate,31,2,1,0.42887009496143946,18,Female,2019-09-13,1,16,10,10,353,1
27,immediate,55,1,1,1.2007894562725596,18,Female,2019-09-13,1,16,11,11,354,1
27,immediate,28,2,2,0.5832759807294678,18,Female,2019-09-13,1,16,12,12,355,1
27,immediate,30,2,2,0.4629106430970751,18,Female,2019-09-13,1,16,13,13,356,1
27,immediate,19,2,2,0.32394605701620094,18,Female,2019-09-13,1,16,14,14,357,1
27,immediate,52,1,1,0.7732445001788619,18,Female,2019-09-13,1,16,15,15,358,1
27,immediate,7,2,2,0.3852443962950929,18,Female,2019-09-13,1,16,16,16,359,1
27,immediate,9,2,2,0.5159038306592265,18,Female,2019-09-13,1,16,17,17,360,1
27,immediate,59,1,1,0.6019370648700715,18,Female,2019-09-13,1,16,18,18,361,1
27,immediate,18,2,2,0.5936374783650535,18,Female,2019-09-13,1,16,19,19,362,1
27,immediate,43,1,1,0.8381824882558249,18,Female,2019-09-13,1,16,20,20,363,1
27,immediate,24,2,2,0.5313312173161648,18,Female,2019-09-13,1,16,21,21,364,1
27,immediate,48,1,1,0.66555176915017,18,Female,2019-09-13,1,16,22,22,365,1
27,immediate,28,1,2,0.7788811326322502,18,Female,2019-09-13,2,17,0,0,366,3
27,immediate,23,2,1,0.45571698793401083,18,Female,2019-09-13,2,17,1,1,367,3
27,immediate,32,2,1,0.4918917949603383,18,Female,2019-09-13,2,17,2,2,368,3
27,immediate,8,1,2,1.2968227585029126,18,Female,2019-09-13,2,17,3,3,369,3
27,immediate,37,2,2,0.8562480946875439,18,Female,2019-09-13,2,17,4,4,370,3
27,immediate,52,2,2,0.6946031045226846,18,Female,2019-09-13,2,17,5,5,371,3
27,immediate,61,1,1,0.7046337812093952,18,Female,2019-09-13,2,17,6,6,372,3
27,immediate,9,1,1,0.5391741472390095,18,Female,2019-09-13,2,17,7,7,373,3
27,immediate,49,2,2,0.6896865486964998,18,Female,2019-09-13,2,17,8,8,374,3
27,immediate,20,2,1,1.003670875822536,18,Female,2019-09-13,2,17,9,9,375,3
27,immediate,58,1,1,0.5252249427862807,18,Female,2019-09-13,2,17,10,10,376,3
27,immediate,27,1,1,0.5245255811164498,18,Female,2019-09-13,2,17,11,11,377,3
27,immediate,63,1,1,0.5622085606569271,18,Female,2019-09-13,2,17,12,12,378,3
27,immediate,12,1,1,0.6652670157909597,18,Female,2019-09-13,2,17,13,13,379,3
27,immediate,7,2,2,0.7228904599278394,18,Female,2019-09-13,2,17,14,14,380,3
27,immediate,5,2,2,0.4936040252564453,18,Female,2019-09-13,2,17,15,15,381,3
27,immediate,21,2,2,0.6434331423229196,18,Female,2019-09-13,2,17,16,16,382,3
27,immediate,34,2,2,0.6043069177444522,18,Female,2019-09-13,2,17,17,17,383,3
27,immediate,30,1,1,0.5964738815314377,18,Female,2019-09-13,2,17,18,18,384,3
27,immediate,55,2,2,1.0524032750654442,18,Female,2019-09-13,2,17,19,19,385,3
27,immediate,59,1,1,0.5431708971555054,18,Female,2019-09-13,2,17,20,20,386,3
27,immediate,18,2,2,0.6299637828356026,18,Female,2019-09-13,2,17,21,21,387,3
27,immediate,39,2,1,0.7030412029762374,18,Female,2019-09-13,3,18,0,0,388,2
27,immediate,11,2,1,0.45762647408537305,18,Female,2019-09-13,3,18,1,1,389,2
27,immediate,21,1,1,0.3181832797527022,18,Female,2019-09-13,3,18,2,2,390,2
27,immediate,32,2,2,0.6552097497569775,18,Female,2019-09-13,3,18,3,3,391,2
27,immediate,52,1,1,1.2726518050767481,18,Female,2019-09-13,3,18,4,4,392,2
27,immediate,45,2,2,0.7046285251753943,18,Female,2019-09-13,3,18,5,5,393,2
27,immediate,55,1,1,1.4671089773678432,18,Female,2019-09-13,3,18,6,6,394,2
27,immediate,47,2,2,0.6319017134051137,18,Female,2019-09-13,3,18,7,7,395,2
27,immediate,3,2,2,0.9765791135109794,18,Female,2019-09-13,3,18,8,8,396,2
27,immediate,31,1,1,0.813339071685732,18,Female,2019-09-13,3,18,9,9,397,2
27,immediate,10,2,2,0.4584504346739777,18,Female,2019-09-13,3,18,10,10,398,2
27,immediate,51,1,1,0.6710415418360753,18,Female,2019-09-13,3,18,11,11,399,2
27,immediate,7,2,2,0.63265487212675,18,Female,2019-09-13,3,18,12,12,400,2
27,immediate,8,2,1,0.7854276772845878,18,Female,2019-09-13,3,18,13,13,401,2
27,immediate,58,1,1,0.749807845588748,18,Female,2019-09-13,3,18,14,14,402,2
27,immediate,38,2,2,0.5854587806370546,18,Female,2019-09-13,3,18,15,15,403,2
27,immediate,23,1,1,0.4008792416966571,18,Female,2019-09-13,3,18,16,16,404,2
27,immediate,27,1,1,0.46827427097241525,18,Female,2019-09-13,3,18,17,17,405,2
27,immediate,26,1,1,0.5052065652189413,18,Female,2019-09-13,3,18,18,18,406,2
27,immediate,24,1,1,0.5429216993188675,18,Female,2019-09-13,3,18,19,19,407,2
27,immediate,40,2,2,0.7896182820932154,18,Female,2019-09-13,3,18,20,20,408,2
27,immediate,59,1,1,0.530025556691271,18,Female,2019-09-13,3,18,21,21,409,2
27,immediate,17,1,1,0.6004554817027383,18,Female,2019-09-13,3,18,22,22,410,2
27,immediate,60,1,1,0.6563867921436213,18,Female,2019-09-13,3,18,23,23,411,2
27,immediate,46,2,2,0.5217816223089358,18,Female,2019-09-13,3,18,24,24,412,2
27,immediate,0,2,2,0.7358005155861065,18,Female,2019-09-13,3,18,25,25,413,2
27,immediate,5,1,2,1.2372889006787773,18,Female,2019-09-13,4,19,0,0,414,6
27,immediate,43,1,2,0.41242860296461004,18,Female,2019-09-13,4,19,1,1,415,6
27,immediate,4,2,1,0.687499729468982,18,Female,2019-09-13,4,19,2,2,416,6
27,immediate,39,1,1,0.5695014621051087,18,Female,2019-09-13,4,19,3,3,417,6
27,immediate,14,2,1,1.0564102278704013,18,Female,2019-09-13,4,19,4,4,418,6
27,immediate,38,2,2,1.0440897755302103,18,Female,2019-09-13,4,19,5,5,419,6
27,immediate,52,2,2,0.5828793047689942,18,Female,2019-09-13,4,19,6,6,420,6
27,immediate,51,1,2,0.5264854633564937,18,Female,2019-09-13,4,19,7,7,421,6
27,immediate,31,1,2,0.4048391993765108,18,Female,2019-09-13,4,19,8,8,422,6
27,immediate,55,1,1,0.45621167346553193,18,Female,2019-09-13,4,19,9,9,423,6
27,immediate,48,2,2,0.4449569592670741,18,Female,2019-09-13,4,19,10,10,424,6
27,immediate,19,1,1,0.4488958928118336,18,Female,2019-09-13,4,19,11,11,425,6
27,immediate,27,1,1,0.5815263398403658,18,Female,2019-09-13,4,19,12,12,426,6
27,immediate,11,1,1,0.4609331376850605,18,Female,2019-09-13,4,19,13,13,427,6
27,immediate,59,1,1,0.4015415019516695,18,Female,2019-09-13,4,19,14,14,428,6
27,immediate,6,2,2,0.6931063716115204,18,Female,2019-09-13,4,19,15,15,429,6
27,immediate,56,2,2,0.5431659503001356,18,Female,2019-09-13,4,19,16,16,430,6
27,immediate,17,1,1,0.469875815380874,18,Female,2019-09-13,4,19,17,17,431,6
27,immediate,58,2,2,0.6988339025310779,18,Female,2019-09-13,4,19,18,18,432,6
27,immediate,30,2,2,0.7891996544617541,18,Female,2019-09-13,4,19,19,19,433,6
27,immediate,32,2,2,0.5444385288305966,18,Female,2019-09-13,4,19,20,20,434,6
27,immediate,4,2,1,0.8208378859853838,18,Female,2019-09-13,0,20,0,0,435,5
27,immediate,0,2,2,1.0419437678583563,18,Female,2019-09-13,0,20,1,1,436,5
27,immediate,46,1,1,1.6847539155905906,18,Female,2019-09-13,0,20,2,2,437,5
27,immediate,35,1,2,0.9987710156328831,18,Female,2019-09-13,0,20,3,3,438,5
27,immediate,51,1,1,1.2403497674049504,18,Female,2019-09-13,0,20,4,4,439,5
27,immediate,3,1,2,1.0395191903980958,18,Female,2019-09-13,0,20,5,5,440,5
27,immediate,42,1,2,1.4898632751028345,18,Female,2019-09-13,0,20,6,6,441,5
27,immediate,61,2,2,0.5110855935818108,18,Female,2019-09-13,0,20,7,7,442,5
27,immediate,48,2,1,0.42109085579977545,18,Female,2019-09-13,0,20,8,8,443,5
27,immediate,49,2,2,0.5690172886406799,18,Female,2019-09-13,0,20,9,9,444,5
27,immediate,16,2,2,0.6880559415130847,18,Female,2019-09-13,0,20,10,10,445,5
27,immediate,34,1,1,0.47424512533780216,18,Female,2019-09-13,0,20,11,11,446,5
27,immediate,36,2,2,0.6870730631972037,18,Female,2019-09-13,0,20,12,12,447,5
27,immediate,13,2,2,0.6332033547105311,18,Female,2019-09-13,0,20,13,13,448,5
27,immediate,19,1,1,0.5778771065097317,18,Female,2019-09-13,0,20,14,14,449,5
27,immediate,5,2,2,0.6494222382170847,18,Female,2019-09-13,0,20,15,15,450,5
27,immediate,33,2,2,2.0832382609578417,18,Female,2019-09-13,0,20,16,16,451,5
27,immediate,10,1,1,0.6492002480845258,18,Female,2019-09-13,0,20,17,17,452,5
27,immediate,2,1,1,0.626154704243163,18,Female,2019-09-13,0,20,18,18,453,5
27,immediate,52,2,2,0.6508333286956258,18,Female,2019-09-13,0,20,19,19,454,5
27,immediate,43,1,1,0.4998911691827743,18,Female,2019-09-13,0,20,20,20,455,5
27,immediate,17,2,1,0.6367425205089603,18,Female,2019-09-13,1,21,0,0,456,1
27,immediate,30,2,2,0.30978568367663684,18,Female,2019-09-13,1,21,1,1,457,1
27,immediate,46,1,1,0.45475389704006375,18,Female,2019-09-13,1,21,2,2,458,1
27,immediate,4,2,1,0.5074703698819576,18,Female,2019-09-13,1,21,3,3,459,1
27,immediate,7,2,2,1.585449196105401,18,Female,2019-09-13,1,21,4,4,460,1
27,immediate,59,1,1,0.4488992937749572,18,Female,2019-09-13,1,21,5,5,461,1
27,immediate,45,1,1,0.8694364109578601,18,Female,2019-09-13,1,21,6,6,462,1
27,immediate,13,2,2,0.6597166441279114,18,Female,2019-09-13,1,21,7,7,463,1
27,immediate,28,2,2,0.6691240170439414,18,Female,2019-09-13,1,21,8,8,464,1
27,immediate,14,2,2,0.6147964152605709,18,Female,2019-09-13,1,21,9,9,465,1
27,immediate,52,1,1,0.4948784588568742,18,Female,2019-09-13,1,21,10,10,466,1
27,immediate,27,2,1,0.9484692265414196,18,Female,2019-09-13,1,21,11,11,467,1
27,immediate,49,1,1,0.5487899064355588,18,Female,2019-09-13,1,21,12,12,468,1
27,immediate,56,1,1,1.0517063868228433,18,Female,2019-09-13,1,21,13,13,469,1
27,immediate,8,2,2,0.735526274294898,18,Female,2019-09-13,1,21,14,14,470,1
27,immediate,48,1,1,0.5067954333107991,18,Female,2019-09-13,1,21,15,15,471,1
27,immediate,6,2,2,0.6083475710020139,18,Female,2019-09-13,1,21,16,16,472,1
27,immediate,61,1,1,0.7927001729549374,18,Female,2019-09-13,1,21,17,17,473,1
27,immediate,9,2,2,0.48156121517058637,18,Female,2019-09-13,1,21,18,18,474,1
27,immediate,44,1,1,0.4707891285434016,18,Female,2019-09-13,1,21,19,19,475,1
27,immediate,2,2,2,0.8597362460413933,18,Female,2019-09-13,1,21,20,20,476,1
27,immediate,3,2,2,0.9698609748156741,18,Female,2019-09-13,1,21,21,21,477,1
27,immediate,62,1,1,0.6187987303892442,18,Female,2019-09-13,1,21,22,22,478,1
27,immediate,53,1,2,0.9790565604889707,18,Female,2019-09-13,1,21,23,23,479,1
27,immediate,23,2,2,0.7241253186857648,18,Female,2019-09-13,1,21,24,24,480,1
27,immediate,60,1,1,0.36727463518491277,18,Female,2019-09-13,1,21,25,25,481,1
27,immediate,29,2,2,0.49745422458363464,18,Female,2019-09-13,1,21,26,26,482,1
27,immediate,12,2,2,0.6629404479008372,18,Female,2019-09-13,1,21,27,27,483,1
27,immediate,1,2,2,0.5445535432154429,18,Female,2019-09-13,1,21,28,28,484,1
27,immediate,43,1,1,0.6792078724256498,18,Female,2019-09-13,1,21,29,29,485,1
27,immediate,50,1,1,0.5609437115881519,18,Female,2019-09-13,1,21,30,30,486,1
27,immediate,33,1,1,1.1119841280142282,18,Female,2019-09-13,1,21,31,31,487,1
27,immediate,15,2,2,0.7645596773163561,18,Female,2019-09-13,1,21,32,32,488,1
27,immediate,38,1,1,0.7282704742610804,18,Female,2019-09-13,1,21,33,33,489,1
27,immediate,51,1,1,0.7232661117532189,18,Female,2019-09-13,1,21,34,34,490,1
27,immediate,25,2,2,0.7020107111784455,18,Female,2019-09-13,1,21,35,35,491,1
