sub_num,condition,stim_id,cat,resp,rt,age,gender,date,prob_num,num_problems_solved,current_trial_prob,current_trial_stim,current_trial_exp,relevant_dim
41,immediate,19,1,1,6.917933165468639,18,Male,2020-03-09,0,0,0,0,0,6
41,immediate,25,1,1,1.4369253914810542,18,Male,2020-03-09,0,0,1,1,1,6
41,immediate,7,1,2,0.906549825993352,18,Male,2020-03-09,0,0,2,2,2,6
41,immediate,35,1,1,0.49029395469187875,18,Male,2020-03-09,0,0,3,3,3,6
41,immediate,28,2,2,0.6637626546817046,18,Male,2020-03-09,0,0,4,4,4,6
41,immediate,34,2,1,0.699181851461617,18,Male,2020-03-09,0,0,5,5,5,6
41,immediate,3,1,1,1.108833357655385,18,Male,2020-03-09,0,0,6,6,6,6
41,immediate,48,2,2,0.6977661224282201,18,Male,2020-03-09,0,0,7,7,7,6
41,immediate,11,1,1,0.6599693418447714,18,Male,2020-03-09,0,0,8,8,8,6
41,immediate,37,1,2,0.5896132669786311,18,Male,2020-03-09,0,0,9,9,9,6
41,immediate,13,1,2,0.7207414969689125,18,Male,2020-03-09,0,0,10,10,10,6
41,immediate,12,2,1,1.275645132167483,18,Male,2020-03-09,0,0,11,11,11,6
41,immediate,21,1,1,2.1318566548852687,18,Male,2020-03-09,0,0,12,12,12,6
41,immediate,63,1,2,0.8643543607795436,18,Male,2020-03-09,0,0,13,13,13,6
41,immediate,53,1,2,0.7497483285787894,18,Male,2020-03-09,0,0,14,14,14,6
41,immediate,39,1,2,1.2579193018991646,18,Male,2020-03-09,0,0,15,15,15,6
41,immediate,56,2,1,0.817477312471965,18,Male,2020-03-09,0,0,16,16,16,6
41,immediate,47,1,1,2.14284084472456,18,Male,2020-03-09,0,0,17,17,17,6
41,immediate,18,2,2,0.8549411076510296,18,Male,2020-03-09,0,0,18,18,18,6
41,immediate,61,1,1,0.7088996455568122,18,Male,2020-03-09,0,0,19,19,19,6
41,immediate,8,2,2,0.6244972755175695,18,Male,2020-03-09,0,0,20,20,20,6
41,immediate,62,2,2,0.7772309094561933,18,Male,2020-03-09,0,0,21,21,21,6
41,immediate,51,1,1,0.5491943422784971,18,Male,2020-03-09,0,0,22,22,22,6
41,immediate,59,1,1,2.508174683463949,18,Male,2020-03-09,0,0,23,23,23,6
41,immediate,0,2,2,0.7060270667352597,18,Male,2020-03-09,0,0,24,24,24,6
41,immediate,15,1,1,0.7519249462657172,18,Male,2020-03-09,0,0,25,25,25,6
41,immediate,31,1,1,0.6567146182133001,18,Male,2020-03-09,0,0,26,26,26,6
41,immediate,32,2,2,0.5380227901750914,18,Male,2020-03-09,0,0,27,27,27,6
41,immediate,41,1,1,0.6246243479417899,18,Male,2020-03-09,0,0,28,28,28,6
41,immediate,40,2,1,1.036622210898713,18,Male,2020-03-09,1,1,0,0,29,4
41,immediate,62,1,1,0.5930108311458753,18,Male,2020-03-09,1,1,1,1,30,4
41,immediate,59,2,1,0.917709010949693,18,Male,2020-03-09,1,1,2,2,31,4
41,immediate,30,1,2,0.9011967068763624,18,Male,2020-03-09,1,1,3,3,32,4
41,immediate,11,2,2,0.9005245524949714,18,Male,2020-03-09,1,1,4,4,33,4
41,immediate,43,2,2,0.5482528932934656,18,Male,2020-03-09,1,1,5,5,34,4
41,immediate,6,1,1,0.6621431769217452,18,Male,2020-03-09,1,1,6,6,35,4
41,immediate,25,2,2,0.5759831262657826,18,Male,2020-03-09,1,1,7,7,36,4
41,immediate,1,2,1,0.7753415187344217,18,Male,2020-03-09,1,1,8,8,37,4
41,immediate,4,1,2,1.4113210708947008,18,Male,2020-03-09,1,1,9,9,38,4
41,immediate,12,1,2,0.6232822034289711,18,Male,2020-03-09,1,1,10,10,39,4
41,immediate,47,1,1,0.7914141707697127,18,Male,2020-03-09,1,1,11,11,40,4
41,immediate,50,2,1,2.260426740736875,18,Male,2020-03-09,1,1,12,12,41,4
41,immediate,20,1,1,1.0917166093240667,18,Male,2020-03-09,1,1,13,13,42,4
41,immediate,16,2,1,0.6632985775304405,18,Male,2020-03-09,1,1,14,14,43,4
41,immediate,34,2,1,1.4764402778146177,18,Male,2020-03-09,1,1,15,15,44,4
41,immediate,10,2,2,1.7562367516948143,18,Male,2020-03-09,1,1,16,16,45,4
41,immediate,29,1,1,1.599275099741135,18,Male,2020-03-09,1,1,17,17,46,4
41,immediate,8,2,1,2.095059448871325,18,Male,2020-03-09,1,1,18,18,47,4
41,immediate,45,1,2,2.378246994165238,18,Male,2020-03-09,1,1,19,19,48,4
41,immediate,19,2,1,2.2045643425499293,18,Male,2020-03-09,1,1,20,20,49,4
41,immediate,63,1,2,4.283035429400115,18,Male,2020-03-09,1,1,21,21,50,4
41,immediate,38,1,2,1.1863119810423086,18,Male,2020-03-09,1,1,22,22,51,4
41,immediate,46,1,2,0.728552895519897,18,Male,2020-03-09,1,1,23,23,52,4
41,immediate,26,2,2,1.1744988832469971,18,Male,2020-03-09,1,1,24,24,53,4
41,immediate,35,2,1,1.1163516548476764,18,Male,2020-03-09,1,1,25,25,54,4
41,immediate,57,2,2,0.8486845685220032,18,Male,2020-03-09,1,1,26,26,55,4
41,immediate,27,2,2,0.990330437771263,18,Male,2020-03-09,1,1,27,27,56,4
41,immediate,36,1,1,0.5339478155910911,18,Male,2020-03-09,1,1,28,28,57,4
41,immediate,51,2,2,1.4206489907173818,18,Male,2020-03-09,1,1,29,29,58,4
41,immediate,13,1,1,0.5202178101753816,18,Male,2020-03-09,1,1,30,30,59,4
41,immediate,44,1,1,0.6539718944241031,18,Male,2020-03-09,1,1,31,31,60,4
41,immediate,5,1,1,0.6791671716582641,18,Male,2020-03-09,1,1,32,32,61,4
41,immediate,33,2,2,0.7375122743924294,18,Male,2020-03-09,1,1,33,33,62,4
41,immediate,41,2,2,0.8918687870536814,18,Male,2020-03-09,1,1,34,34,63,4
41,immediate,32,2,2,0.6726289707821707,18,Male,2020-03-09,1,1,35,35,64,4
41,immediate,39,1,1,0.634168383638098,18,Male,2020-03-09,1,1,36,36,65,4
41,immediate,9,2,2,0.5306173431908974,18,Male,2020-03-09,1,1,37,37,66,4
41,immediate,62,1,1,0.8787821824062121,18,Male,2020-03-09,2,2,0,0,67,1
41,immediate,38,1,1,0.6051238322324934,18,Male,2020-03-09,2,2,1,1,68,1
41,immediate,25,2,1,0.501386975416608,18,Male,2020-03-09,2,2,2,2,69,1
41,immediate,49,1,1,0.4269979742603027,18,Male,2020-03-09,2,2,3,3,70,1
41,immediate,35,1,1,0.7671881685982953,18,Male,2020-03-09,2,2,4,4,71,1
41,immediate,9,2,2,0.7788673920404108,18,Male,2020-03-09,2,2,5,5,72,1
41,immediate,42,1,1,0.47340970870391175,18,Male,2020-03-09,2,2,6,6,73,1
41,immediate,44,1,1,1.5822180228897196,18,Male,2020-03-09,2,2,7,7,74,1
41,immediate,27,2,2,0.46186930647490954,18,Male,2020-03-09,2,2,8,8,75,1
41,immediate,6,2,2,0.5399758716994256,18,Male,2020-03-09,2,2,9,9,76,1
41,immediate,16,2,2,1.3466807817039808,18,Male,2020-03-09,2,2,10,10,77,1
41,immediate,55,1,1,0.6999087304629938,18,Male,2020-03-09,2,2,11,11,78,1
41,immediate,1,2,2,2.086905171197941,18,Male,2020-03-09,2,2,12,12,79,1
41,immediate,26,2,2,1.3466739797713672,18,Male,2020-03-09,2,2,13,13,80,1
41,immediate,2,2,2,0.8071736248348316,18,Male,2020-03-09,2,2,14,14,81,1
41,immediate,13,1,1,1.366697316576392,18,Male,2020-03-09,3,3,0,0,82,3
41,immediate,20,2,1,0.5291697687589476,18,Male,2020-03-09,3,3,1,1,83,3
41,immediate,5,2,1,0.7746047460168484,18,Male,2020-03-09,3,3,2,2,84,3
41,immediate,53,2,2,2.5948924923995946,18,Male,2020-03-09,3,3,3,3,85,3
41,immediate,17,2,2,0.6663356393946742,18,Male,2020-03-09,3,3,4,4,86,3
41,immediate,6,2,2,0.531885903184957,18,Male,2020-03-09,3,3,5,5,87,3
41,immediate,2,2,2,0.9544688063469948,18,Male,2020-03-09,3,3,6,6,88,3
41,immediate,31,1,1,0.906874463573331,18,Male,2020-03-09,3,3,7,7,89,3
41,immediate,18,2,2,0.9713360475107038,18,Male,2020-03-09,3,3,8,8,90,3
41,immediate,52,2,2,0.6519501752427459,18,Male,2020-03-09,3,3,9,9,91,3
41,immediate,60,1,1,0.5219659062531719,18,Male,2020-03-09,3,3,10,10,92,3
41,immediate,56,1,2,1.1189203110589006,18,Male,2020-03-09,3,3,11,11,93,3
41,immediate,47,1,1,0.6279885208150517,18,Male,2020-03-09,3,3,12,12,94,3
41,immediate,46,1,1,0.4285763312600466,18,Male,2020-03-09,3,3,13,13,95,3
41,immediate,0,2,2,0.464690561642783,18,Male,2020-03-09,3,3,14,14,96,3
41,immediate,14,1,1,0.5815028926754167,18,Male,2020-03-09,3,3,15,15,97,3
41,immediate,48,2,2,0.6853872277060873,18,Male,2020-03-09,3,3,16,16,98,3
41,immediate,27,1,1,0.48708715375141765,18,Male,2020-03-09,3,3,17,17,99,3
41,immediate,15,1,1,0.5873775961736101,18,Male,2020-03-09,3,3,18,18,100,3
41,immediate,10,1,1,0.4834586331344326,18,Male,2020-03-09,3,3,19,19,101,3
41,immediate,1,2,2,0.5046052159668761,18,Male,2020-03-09,3,3,20,20,102,3
41,immediate,12,1,1,1.509857542847385,18,Male,2020-03-09,3,3,21,21,103,3
41,immediate,33,2,2,1.1238980872967659,18,Male,2020-03-09,3,3,22,22,104,3
41,immediate,36,2,2,0.7070547765633819,18,Male,2020-03-09,3,3,23,23,105,3
41,immediate,38,1,1,1.5196591243566218,18,Male,2020-03-09,4,4,0,0,106,5
41,immediate,45,2,1,0.6697805078947567,18,Male,2020-03-09,4,4,1,1,107,5
41,immediate,53,2,2,3.1433661392493377,18,Male,2020-03-09,4,4,2,2,108,5
41,immediate,10,1,1,0.4199657059034507,18,Male,2020-03-09,4,4,3,3,109,5
41,immediate,12,2,1,1.0788322075113683,18,Male,2020-03-09,4,4,4,4,110,5
41,immediate,62,1,1,1.226320007321192,18,Male,2020-03-09,4,4,5,5,111,5
41,immediate,4,2,2,0.5726056587118364,18,Male,2020-03-09,4,4,6,6,112,5
41,immediate,58,1,1,1.0600128123642207,18,Male,2020-03-09,4,4,7,7,113,5
41,immediate,19,1,1,0.6150778388164326,18,Male,2020-03-09,4,4,8,8,114,5
41,immediate,25,2,2,0.655296724931759,18,Male,2020-03-09,4,4,9,9,115,5
41,immediate,41,2,2,0.8406957014267391,18,Male,2020-03-09,4,4,10,10,116,5
41,immediate,13,2,2,0.7744146011464181,18,Male,2020-03-09,4,4,11,11,117,5
41,immediate,36,2,2,1.6104896276738145,18,Male,2020-03-09,4,4,12,12,118,5
41,immediate,20,2,2,0.6023922388740175,18,Male,2020-03-09,4,4,13,13,119,5
41,immediate,5,2,2,1.0585723490421515,18,Male,2020-03-09,4,4,14,14,120,5
41,immediate,11,1,1,0.5186184290269011,18,Male,2020-03-09,4,4,15,15,121,5
41,immediate,32,2,2,0.4991942804408609,18,Male,2020-03-09,4,4,16,16,122,5
41,immediate,54,2,1,1.5548294323234586,18,Male,2020-03-09,0,5,0,0,123,6
41,immediate,61,1,1,0.7219386366941762,18,Male,2020-03-09,0,5,1,1,124,6
41,immediate,7,1,1,0.7967846038936841,18,Male,2020-03-09,0,5,2,2,125,6
41,immediate,59,1,1,0.5221344086148747,18,Male,2020-03-09,0,5,3,3,126,6
41,immediate,21,1,1,0.5596705515999929,18,Male,2020-03-09,0,5,4,4,127,6
41,immediate,26,2,2,0.6472435486775794,18,Male,2020-03-09,0,5,5,5,128,6
41,immediate,50,2,2,0.9773968765530299,18,Male,2020-03-09,0,5,6,6,129,6
41,immediate,40,2,2,0.502996250281285,18,Male,2020-03-09,0,5,7,7,130,6
41,immediate,57,1,1,0.5724683833923336,18,Male,2020-03-09,0,5,8,8,131,6
41,immediate,35,1,1,0.5684373121748649,18,Male,2020-03-09,0,5,9,9,132,6
41,immediate,15,1,1,0.5596686965272966,18,Male,2020-03-09,0,5,10,10,133,6
41,immediate,46,2,2,1.4142159105795145,18,Male,2020-03-09,0,5,11,11,134,6
41,immediate,53,1,1,1.8090376629061211,18,Male,2020-03-09,0,5,12,12,135,6
41,immediate,52,1,1,0.7362721588342538,18,Male,2020-03-09,1,6,0,0,136,4
41,immediate,9,2,2,0.37904312918544747,18,Male,2020-03-09,1,6,1,1,137,4
41,immediate,59,2,1,0.8935000136043527,18,Male,2020-03-09,1,6,2,2,138,4
41,immediate,1,2,2,1.6921205203107093,18,Male,2020-03-09,1,6,3,3,139,4
41,immediate,3,2,2,1.1967996299736114,18,Male,2020-03-09,1,6,4,4,140,4
41,immediate,46,1,1,0.9871177624372649,18,Male,2020-03-09,1,6,5,5,141,4
41,immediate,45,1,1,1.0210117809438088,18,Male,2020-03-09,1,6,6,6,142,4
41,immediate,54,1,1,2.891653598715493,18,Male,2020-03-09,1,6,7,7,143,4
41,immediate,22,1,1,1.0665534866693633,18,Male,2020-03-09,1,6,8,8,144,4
41,immediate,25,2,2,0.7085199741777615,18,Male,2020-03-09,1,6,9,9,145,4
41,immediate,15,1,1,0.45622525024919014,18,Male,2020-03-09,1,6,10,10,146,4
41,immediate,11,2,2,1.5170774826419802,18,Male,2020-03-09,1,6,11,11,147,4
41,immediate,62,1,1,0.7151277402499545,18,Male,2020-03-09,1,6,12,12,148,4
41,immediate,23,1,1,0.5656608879125997,18,Male,2020-03-09,1,6,13,13,149,4
41,immediate,5,1,1,0.8289540238984046,18,Male,2020-03-09,1,6,14,14,150,4
41,immediate,14,2,1,1.2421771618392086,18,Male,2020-03-09,2,7,0,0,151,1
41,immediate,59,1,1,1.8577002179099509,18,Male,2020-03-09,2,7,1,1,152,1
41,immediate,49,1,1,0.7438692965824885,18,Male,2020-03-09,2,7,2,2,153,1
41,immediate,1,2,2,1.1096474250371102,18,Male,2020-03-09,2,7,3,3,154,1
41,immediate,0,2,2,1.2098083216060331,18,Male,2020-03-09,2,7,4,4,155,1
41,immediate,4,2,2,0.6561126473843615,18,Male,2020-03-09,2,7,5,5,156,1
41,immediate,48,1,1,0.6498561082571541,18,Male,2020-03-09,2,7,6,6,157,1
41,immediate,40,1,2,1.2188066569869989,18,Male,2020-03-09,2,7,7,7,158,1
41,immediate,61,1,1,1.002697274527236,18,Male,2020-03-09,2,7,8,8,159,1
41,immediate,7,2,2,0.8119226088747382,18,Male,2020-03-09,2,7,9,9,160,1
41,immediate,3,2,1,0.6195083688471641,18,Male,2020-03-09,2,7,10,10,161,1
41,immediate,37,1,1,0.41999662377020286,18,Male,2020-03-09,2,7,11,11,162,1
41,immediate,56,1,1,0.8874648463879566,18,Male,2020-03-09,2,7,12,12,163,1
41,immediate,42,1,1,1.0305369567413436,18,Male,2020-03-09,2,7,13,13,164,1
41,immediate,34,1,1,0.8088608127200132,18,Male,2020-03-09,2,7,14,14,165,1
41,immediate,18,2,2,1.4620109102961578,18,Male,2020-03-09,2,7,15,15,166,1
41,immediate,51,1,1,0.7271334563447454,18,Male,2020-03-09,2,7,16,16,167,1
41,immediate,27,2,2,1.4418886363237107,18,Male,2020-03-09,2,7,17,17,168,1
41,immediate,46,1,1,0.9420933125893498,18,Male,2020-03-09,2,7,18,18,169,1
41,immediate,2,2,2,1.0062058338298812,18,Male,2020-03-09,2,7,19,19,170,1
41,immediate,31,2,2,2.4686362995525997,18,Male,2020-03-09,2,7,20,20,171,1
41,immediate,44,1,1,1.1936463169386116,18,Male,2020-03-09,2,7,21,21,172,1
41,immediate,12,2,2,1.8716330445204221,18,Male,2020-03-09,2,7,22,22,173,1
41,immediate,57,1,1,1.0602845803950913,18,Male,2020-03-09,3,8,0,0,174,3
41,immediate,22,2,1,1.4258617427294666,18,Male,2020-03-09,3,8,1,1,175,3
41,immediate,17,2,1,0.5737047888051166,18,Male,2020-03-09,3,8,2,2,176,3
41,immediate,41,1,1,1.2527952841592196,18,Male,2020-03-09,3,8,3,3,177,3
41,immediate,15,1,1,0.6525036050225026,18,Male,2020-03-09,3,8,4,4,178,3
41,immediate,63,1,1,1.0897026196089428,18,Male,2020-03-09,3,8,5,5,179,3
41,immediate,36,2,2,0.7450454121590155,18,Male,2020-03-09,3,8,6,6,180,3
41,immediate,27,1,1,1.1247597681904153,18,Male,2020-03-09,3,8,7,7,181,3
41,immediate,32,2,2,1.1612771675281692,18,Male,2020-03-09,3,8,8,8,182,3
41,immediate,53,2,2,0.7501221255661221,18,Male,2020-03-09,3,8,9,9,183,3
41,immediate,45,1,1,1.289883427281893,18,Male,2020-03-09,3,8,10,10,184,3
41,immediate,10,1,1,1.2186165121183876,18,Male,2020-03-09,3,8,11,11,185,3
41,immediate,26,1,1,0.7127238762586785,18,Male,2020-03-09,3,8,12,12,186,3
41,immediate,30,1,1,0.9191460733072745,18,Male,2020-03-09,3,8,13,13,187,3
41,immediate,39,2,2,0.9508801697757008,18,Male,2020-03-09,3,8,14,14,188,3
41,immediate,30,1,1,0.5717105865242047,18,Male,2020-03-09,4,9,0,0,189,5
41,immediate,36,2,2,1.01184587073476,18,Male,2020-03-09,4,9,1,1,190,5
41,immediate,35,1,2,1.41372462570871,18,Male,2020-03-09,4,9,2,2,191,5
41,immediate,58,1,1,1.3452999898581766,18,Male,2020-03-09,4,9,3,3,192,5
41,immediate,44,2,1,0.7634845175689406,18,Male,2020-03-09,4,9,4,4,193,5
41,immediate,43,1,2,0.9284529689793999,18,Male,2020-03-09,4,9,5,5,194,5
41,immediate,3,1,1,0.5282960298991384,18,Male,2020-03-09,4,9,6,6,195,5
41,immediate,12,2,2,1.1424070670818764,18,Male,2020-03-09,4,9,7,7,196,5
41,immediate,4,2,2,0.7958518119103246,18,Male,2020-03-09,4,9,8,8,197,5
41,immediate,41,2,1,1.1926717858405027,18,Male,2020-03-09,4,9,9,9,198,5
41,immediate,11,1,2,1.1945719978139095,18,Male,2020-03-09,4,9,10,10,199,5
41,immediate,2,1,2,1.3306449219271599,18,Male,2020-03-09,4,9,11,11,200,5
41,immediate,46,1,1,3.032686675884179,18,Male,2020-03-09,4,9,12,12,201,5
41,immediate,0,2,1,1.7945387301897426,18,Male,2020-03-09,4,9,13,13,202,5
41,immediate,40,2,1,1.431252581642184,18,Male,2020-03-09,4,9,14,14,203,5
41,immediate,18,1,1,1.331248129468804,18,Male,2020-03-09,4,9,15,15,204,5
41,immediate,42,1,2,1.3366946205387649,18,Male,2020-03-09,4,9,16,16,205,5
41,immediate,6,1,1,2.0186397623529047,18,Male,2020-03-09,4,9,17,17,206,5
41,immediate,20,2,1,2.6848167931002536,18,Male,2020-03-09,4,9,18,18,207,5
41,immediate,56,2,1,1.4101740181104105,18,Male,2020-03-09,4,9,19,19,208,5
41,immediate,38,1,1,0.5735634941647731,18,Male,2020-03-09,4,9,20,20,209,5
41,immediate,51,1,1,0.7411268819705583,18,Male,2020-03-09,4,9,21,21,210,5
41,immediate,16,2,2,1.743577431936501,18,Male,2020-03-09,4,9,22,22,211,5
41,immediate,48,2,2,0.6751645448766794,18,Male,2020-03-09,4,9,23,23,212,5
41,immediate,8,2,2,0.774893518871977,18,Male,2020-03-09,4,9,24,24,213,5
41,immediate,19,1,1,0.6280636512274214,18,Male,2020-03-09,4,9,25,25,214,5
41,immediate,57,2,2,0.5088007702252071,18,Male,2020-03-09,4,9,26,26,215,5
41,immediate,63,1,1,0.9144929346493882,18,Male,2020-03-09,4,9,27,27,216,5
41,immediate,37,2,2,0.5935654976419755,18,Male,2020-03-09,4,9,28,28,217,5
41,immediate,15,1,1,0.7984232507296838,18,Male,2020-03-09,4,9,29,29,218,5
41,immediate,28,2,2,0.955541965437078,18,Male,2020-03-09,4,9,30,30,219,5
41,immediate,60,2,2,0.6679832524114317,18,Male,2020-03-09,4,9,31,31,220,5
41,immediate,10,2,1,0.800262554506844,18,Male,2020-03-09,0,10,0,0,221,6
41,immediate,52,2,1,1.2338679856638919,18,Male,2020-03-09,0,10,1,1,222,6
41,immediate,28,2,2,1.3529880261303333,18,Male,2020-03-09,0,10,2,2,223,6
41,immediate,47,1,2,0.7226386171550985,18,Male,2020-03-09,0,10,3,3,224,6
41,immediate,63,1,1,1.3261581213810132,18,Male,2020-03-09,0,10,4,4,225,6
41,immediate,61,1,2,0.519288109979243,18,Male,2020-03-09,0,10,5,5,226,6
41,immediate,14,2,1,1.0185915304846276,18,Male,2020-03-09,0,10,6,6,227,6
41,immediate,33,1,2,1.216305710900997,18,Male,2020-03-09,0,10,7,7,228,6
41,immediate,18,2,1,2.710572611224052,18,Male,2020-03-09,0,10,8,8,229,6
41,immediate,7,1,2,0.5173096758080646,18,Male,2020-03-09,0,10,9,9,230,6
41,immediate,20,2,2,0.9870584001364477,18,Male,2020-03-09,0,10,10,10,231,6
41,immediate,32,2,2,0.6041319871292217,18,Male,2020-03-09,0,10,11,11,232,6
41,immediate,43,1,1,1.3326051145559177,18,Male,2020-03-09,0,10,12,12,233,6
41,immediate,9,1,2,1.150480030768449,18,Male,2020-03-09,0,10,13,13,234,6
41,immediate,44,2,1,0.7074897909224092,18,Male,2020-03-09,0,10,14,14,235,6
41,immediate,56,2,2,1.3740121742193878,18,Male,2020-03-09,0,10,15,15,236,6
41,immediate,13,1,1,0.7284357168118731,18,Male,2020-03-09,0,10,16,16,237,6
41,immediate,31,1,2,1.925262863687749,18,Male,2020-03-09,0,10,17,17,238,6
41,immediate,57,1,2,0.6690409525672294,18,Male,2020-03-09,0,10,18,18,239,6
41,immediate,17,1,1,3.2122536155347916,18,Male,2020-03-09,0,10,19,19,240,6
41,immediate,58,2,1,0.5428509239482082,18,Male,2020-03-09,0,10,20,20,241,6
41,immediate,39,1,1,4.485193125350634,18,Male,2020-03-09,0,10,21,21,242,6
41,immediate,49,1,1,0.7063436656717386,18,Male,2020-03-09,0,10,22,22,243,6
41,immediate,6,2,2,0.7003493100382912,18,Male,2020-03-09,0,10,23,23,244,6
41,immediate,50,2,2,0.7587816011491668,18,Male,2020-03-09,0,10,24,24,245,6
41,immediate,25,1,2,0.4611696351930732,18,Male,2020-03-09,0,10,25,25,246,6
41,immediate,5,1,1,0.91408914733438,18,Male,2020-03-09,0,10,26,26,247,6
41,immediate,59,1,2,0.8658745921929949,18,Male,2020-03-09,0,10,27,27,248,6
41,immediate,12,2,1,2.647378968926205,18,Male,2020-03-09,0,10,28,28,249,6
41,immediate,24,2,2,0.7444409679010278,18,Male,2020-03-09,0,10,29,29,250,6
41,immediate,54,2,2,0.7402522155734914,18,Male,2020-03-09,0,10,30,30,251,6
41,immediate,2,2,1,0.7034664491693547,18,Male,2020-03-09,0,10,31,31,252,6
41,immediate,51,1,1,2.281749555400893,18,Male,2020-03-09,0,10,32,32,253,6
41,immediate,1,1,2,1.723032819932996,18,Male,2020-03-09,0,10,33,33,254,6
41,immediate,53,1,1,1.567536983950049,18,Male,2020-03-09,0,10,34,34,255,6
41,immediate,15,1,2,1.5531267855076294,18,Male,2020-03-09,0,10,35,35,256,6
41,immediate,16,2,1,1.071678122765661,18,Male,2020-03-09,0,10,36,36,257,6
41,immediate,35,1,1,1.651445595689438,18,Male,2020-03-09,0,10,37,37,258,6
41,immediate,22,2,1,1.0761992421412288,18,Male,2020-03-09,0,10,38,38,259,6
41,immediate,36,2,2,2.1193593447387684,18,Male,2020-03-09,0,10,39,39,260,6
41,immediate,62,2,1,0.4989741452445742,18,Male,2020-03-09,0,10,40,40,261,6
41,immediate,38,2,2,1.7841110619174287,18,Male,2020-03-09,0,10,41,41,262,6
41,immediate,8,2,2,0.9032966482554912,18,Male,2020-03-09,0,10,42,42,263,6
41,immediate,11,1,2,0.6841566966868413,18,Male,2020-03-09,0,10,43,43,264,6
41,immediate,40,2,1,1.7136699629227223,18,Male,2020-03-09,0,10,44,44,265,6
41,immediate,41,1,2,1.7317093003421178,18,Male,2020-03-09,0,10,45,45,266,6
41,immediate,46,2,2,2.0713231856789207,18,Male,2020-03-09,0,10,46,46,267,6
41,immediate,60,2,2,0.9783881032999489,18,Male,2020-03-09,0,10,47,47,268,6
41,immediate,21,1,1,1.351997726917034,18,Male,2020-03-09,0,10,48,48,269,6
41,immediate,55,1,1,1.4899520031067368,18,Male,2020-03-09,0,10,49,49,270,6
41,immediate,3,1,1,1.1490299829074502,18,Male,2020-03-09,0,10,50,50,271,6
41,immediate,26,2,2,0.8026064378427691,18,Male,2020-03-09,0,10,51,51,272,6
41,immediate,48,2,2,1.2314359864158178,18,Male,2020-03-09,0,10,52,52,273,6
41,immediate,30,2,2,0.8044735676976416,18,Male,2020-03-09,0,10,53,53,274,6
41,immediate,37,1,1,1.0737298322765128,18,Male,2020-03-09,0,10,54,54,275,6
41,immediate,0,2,2,0.7570474181102327,18,Male,2020-03-09,0,10,55,55,276,6
41,immediate,45,1,1,0.6092325072895619,18,Male,2020-03-09,0,10,56,56,277,6
41,immediate,34,2,2,0.9213223818132974,18,Male,2020-03-09,0,10,57,57,278,6
41,immediate,35,2,1,0.7615654456985794,18,Male,2020-03-09,1,11,0,0,279,4
41,immediate,18,2,1,4.405302290148029,18,Male,2020-03-09,1,11,1,1,280,4
41,immediate,28,1,1,0.4506949717651878,18,Male,2020-03-09,1,11,2,2,281,4
41,immediate,49,2,2,0.7740197800121678,18,Male,2020-03-09,1,11,3,3,282,4
41,immediate,54,1,1,0.7323171455645934,18,Male,2020-03-09,1,11,4,4,283,4
41,immediate,4,1,1,0.6471977902383514,18,Male,2020-03-09,1,11,5,5,284,4
41,immediate,63,1,2,0.7049628738277534,18,Male,2020-03-09,1,11,6,6,285,4
41,immediate,23,1,1,1.1121193083308754,18,Male,2020-03-09,1,11,7,7,286,4
41,immediate,30,1,1,0.7642333482563117,18,Male,2020-03-09,1,11,8,8,287,4
41,immediate,19,2,2,0.4723563370480406,18,Male,2020-03-09,1,11,9,9,288,4
41,immediate,39,1,1,0.8884644209592807,18,Male,2020-03-09,1,11,10,10,289,4
41,immediate,56,2,2,1.414909398288728,18,Male,2020-03-09,1,11,11,11,290,4
41,immediate,9,2,2,1.8741785123311274,18,Male,2020-03-09,1,11,12,12,291,4
41,immediate,53,1,1,1.0011550914314284,18,Male,2020-03-09,1,11,13,13,292,4
41,immediate,29,1,1,0.7680965354684304,18,Male,2020-03-09,1,11,14,14,293,4
41,immediate,55,1,1,0.6520917790639942,18,Male,2020-03-09,1,11,15,15,294,4
41,immediate,6,1,1,0.7257804905802914,18,Male,2020-03-09,1,11,16,16,295,4
41,immediate,48,2,2,0.8166063562184718,18,Male,2020-03-09,1,11,17,17,296,4
41,immediate,25,2,2,0.8457226370719582,18,Male,2020-03-09,1,11,18,18,297,4
41,immediate,4,2,1,1.761144962738399,18,Male,2020-03-09,2,12,0,0,298,1
41,immediate,46,1,1,1.620628213911914,18,Male,2020-03-09,2,12,1,1,299,1
41,immediate,16,2,2,1.9852323910399718,18,Male,2020-03-09,2,12,2,2,300,1
41,immediate,44,1,1,0.7941386530201271,18,Male,2020-03-09,2,12,3,3,301,1
41,immediate,61,1,1,0.6640910024052573,18,Male,2020-03-09,2,12,4,4,302,1
41,immediate,52,1,2,0.6960467799653998,18,Male,2020-03-09,2,12,5,5,303,1
41,immediate,56,1,2,1.5704361521347892,18,Male,2020-03-09,2,12,6,6,304,1
41,immediate,33,1,1,1.7778353537123621,18,Male,2020-03-09,2,12,7,7,305,1
41,immediate,28,2,1,0.7262825967045501,18,Male,2020-03-09,2,12,8,8,306,1
41,immediate,21,2,1,1.0731872237483913,18,Male,2020-03-09,2,12,9,9,307,1
41,immediate,12,2,1,2.7883307321098982,18,Male,2020-03-09,2,12,10,10,308,1
41,immediate,24,2,1,1.2832079510844778,18,Male,2020-03-09,2,12,11,11,309,1
41,immediate,35,1,2,2.939697796422479,18,Male,2020-03-09,2,12,12,12,310,1
41,immediate,8,2,1,2.379517100052908,18,Male,2020-03-09,2,12,13,13,311,1
41,immediate,2,2,1,1.1908776221443986,18,Male,2020-03-09,2,12,14,14,312,1
41,immediate,6,2,1,0.8288832219877804,18,Male,2020-03-09,2,12,15,15,313,1
41,immediate,50,1,1,0.9225049901433522,18,Male,2020-03-09,2,12,16,16,314,1
41,immediate,53,1,1,1.2742120891325612,18,Male,2020-03-09,2,12,17,17,315,1
41,immediate,47,1,2,0.56241884060546,18,Male,2020-03-09,2,12,18,18,316,1
41,immediate,17,2,1,1.9779258812195621,18,Male,2020-03-09,2,12,19,19,317,1
41,immediate,36,1,1,2.0803839751479245,18,Male,2020-03-09,2,12,20,20,318,1
41,immediate,26,2,2,0.459506872422935,18,Male,2020-03-09,2,12,21,21,319,1
41,immediate,37,1,1,0.6398634543420485,18,Male,2020-03-09,2,12,22,22,320,1
41,immediate,34,1,1,0.6379635515477275,18,Male,2020-03-09,2,12,23,23,321,1
41,immediate,9,2,1,0.5367554668973753,18,Male,2020-03-09,2,12,24,24,322,1
41,immediate,10,2,1,2.7031087294726603,18,Male,2020-03-09,2,12,25,25,323,1
41,immediate,31,2,2,2.489766186738052,18,Male,2020-03-09,2,12,26,26,324,1
41,immediate,27,2,2,0.9907107275084854,18,Male,2020-03-09,2,12,27,27,325,1
41,immediate,1,2,2,1.6003207419289538,18,Male,2020-03-09,2,12,28,28,326,1
