sub_num,condition,stim_id,cat,resp,rt,age,gender,date,prob_num,num_problems_solved,current_trial_prob,current_trial_stim,current_trial_exp,relevant_dim
26,delay,9,1,1,1.9700523562798935,19,Male,2019-09-13,0,0,0,0,0,6
26,delay,50,2,2,1.8197594715275045,19,Male,2019-09-13,0,0,1,1,1,6
26,delay,58,2,2,1.3932351135210865,19,Male,2019-09-13,0,0,2,2,2,6
26,delay,33,1,2,1.2605511786191528,19,Male,2019-09-13,0,0,3,3,3,6
26,delay,28,2,1,1.4610728863478926,19,Male,2019-09-13,0,0,4,4,4,6
26,delay,0,2,2,1.3138591098504548,19,Male,2019-09-13,0,0,5,5,5,6
26,delay,27,1,2,1.8192471628240128,19,Male,2019-09-13,0,0,6,6,6,6
26,delay,48,2,1,2.2407585013254447,19,Male,2019-09-13,0,0,7,7,7,6
26,delay,34,2,2,2.5761716781403265,19,Male,2019-09-13,0,0,8,8,8,6
26,delay,1,1,2,3.3999696386754295,19,Male,2019-09-13,0,0,9,9,9,6
26,delay,3,1,1,1.2748642861163262,19,Male,2019-09-13,0,0,10,10,10,6
26,delay,20,2,2,1.3311795962006272,19,Male,2019-09-13,0,0,11,11,11,6
26,delay,40,2,2,2.220990867486762,19,Male,2019-09-13,0,0,12,12,12,6
26,delay,38,2,2,1.8520964463646123,19,Male,2019-09-13,0,0,13,13,13,6
26,delay,61,1,2,2.3701496856581343,19,Male,2019-09-13,0,0,14,14,14,6
26,delay,7,1,1,1.764867309881538,19,Male,2019-09-13,0,0,15,15,15,6
26,delay,41,1,1,2.713013754112808,19,Male,2019-09-13,0,0,16,16,16,6
26,delay,13,1,1,1.4266304062171002,19,Male,2019-09-13,0,0,17,17,17,6
26,delay,44,2,2,1.057041570280262,19,Male,2019-09-13,0,0,18,18,18,6
26,delay,4,2,1,1.4282031970290063,19,Male,2019-09-13,0,0,19,19,19,6
26,delay,49,1,2,1.904319470389737,19,Male,2019-09-13,0,0,20,20,20,6
26,delay,25,1,1,1.4154928706539067,19,Male,2019-09-13,0,0,21,21,21,6
26,delay,56,2,2,1.7471643697799664,19,Male,2019-09-13,0,0,22,22,22,6
26,delay,16,2,1,1.9748430764739169,19,Male,2019-09-13,0,0,23,23,23,6
26,delay,2,2,2,1.1358975357859435,19,Male,2019-09-13,0,0,24,24,24,6
26,delay,14,2,2,0.8848279329131401,19,Male,2019-09-13,0,0,25,25,25,6
26,delay,5,1,1,1.9717744802862853,19,Male,2019-09-13,0,0,26,26,26,6
26,delay,11,1,1,1.2609391975829567,19,Male,2019-09-13,0,0,27,27,27,6
26,delay,19,1,1,1.3809542360229443,19,Male,2019-09-13,0,0,28,28,28,6
26,delay,39,1,1,1.8555518248022054,19,Male,2019-09-13,0,0,29,29,29,6
26,delay,42,2,2,1.0300252475128673,19,Male,2019-09-13,0,0,30,30,30,6
26,delay,62,2,2,0.9684894591789543,19,Male,2019-09-13,0,0,31,31,31,6
26,delay,54,2,2,0.8258382291742237,19,Male,2019-09-13,0,0,32,32,32,6
26,delay,35,1,1,1.2685115963563476,19,Male,2019-09-13,0,0,33,33,33,6
26,delay,21,1,1,0.6834259941169876,19,Male,2019-09-13,0,0,34,34,34,6
26,delay,10,2,2,1.30157823235254,19,Male,2019-09-13,0,0,35,35,35,6
26,delay,19,2,1,1.655142967210395,19,Male,2019-09-13,1,1,0,0,36,3
26,delay,35,2,1,2.2644350783982645,19,Male,2019-09-13,1,1,1,1,37,3
26,delay,33,2,2,1.256252052172158,19,Male,2019-09-13,1,1,2,2,38,3
26,delay,54,2,2,1.5041763825997805,19,Male,2019-09-13,1,1,3,3,39,3
26,delay,49,2,2,0.9094184415055224,19,Male,2019-09-13,1,1,4,4,40,3
26,delay,57,1,2,0.6855392288719031,19,Male,2019-09-13,1,1,5,5,41,3
26,delay,26,1,1,1.4964450660991133,19,Male,2019-09-13,1,1,6,6,42,3
26,delay,48,2,1,1.590123974377775,19,Male,2019-09-13,1,1,7,7,43,3
26,delay,2,2,1,1.2860769520445956,19,Male,2019-09-13,1,1,8,8,44,3
26,delay,28,1,1,1.454739674830762,19,Male,2019-09-13,1,1,9,9,45,3
26,delay,51,2,1,1.2425004127533157,19,Male,2019-09-13,1,1,10,10,46,3
26,delay,31,1,1,1.7309597084818051,19,Male,2019-09-13,1,1,11,11,47,3
26,delay,25,1,2,0.98241794867522,19,Male,2019-09-13,1,1,12,12,48,3
26,delay,59,1,2,1.8794578122904113,19,Male,2019-09-13,1,1,13,13,49,3
26,delay,37,2,1,1.7263365630115004,19,Male,2019-09-13,1,1,14,14,50,3
26,delay,43,1,2,1.8568129637289985,19,Male,2019-09-13,1,1,15,15,51,3
26,delay,34,2,1,2.183832563788201,19,Male,2019-09-13,1,1,16,16,52,3
26,delay,50,2,1,1.4935706339826993,19,Male,2019-09-13,1,1,17,17,53,3
26,delay,8,1,1,1.619086884711578,19,Male,2019-09-13,1,1,18,18,54,3
26,delay,62,1,2,2.291775729367373,19,Male,2019-09-13,1,1,19,19,55,3
26,delay,14,1,2,2.40453558613126,19,Male,2019-09-13,1,1,20,20,56,3
26,delay,23,2,2,1.7833456695539098,19,Male,2019-09-13,1,1,21,21,57,3
26,delay,21,2,2,1.2117186055556886,19,Male,2019-09-13,1,1,22,22,58,3
26,delay,63,1,2,0.6749353353256993,19,Male,2019-09-13,1,1,23,23,59,3
26,delay,61,1,2,0.7653443722410884,19,Male,2019-09-13,1,1,24,24,60,3
26,delay,13,1,1,0.8254839106621148,19,Male,2019-09-13,1,1,25,25,61,3
26,delay,11,1,2,1.3350548389830692,19,Male,2019-09-13,1,1,26,26,62,3
26,delay,45,1,1,0.8326293339864606,19,Male,2019-09-13,1,1,27,27,63,3
26,delay,12,1,2,1.630605637312783,19,Male,2019-09-13,1,1,28,28,64,3
26,delay,27,1,1,1.4077584623689745,19,Male,2019-09-13,1,1,29,29,65,3
26,delay,56,1,1,1.7554481881834363,19,Male,2019-09-13,1,1,30,30,66,3
26,delay,3,2,2,0.8472636779001732,19,Male,2019-09-13,1,1,31,31,67,3
26,delay,32,2,2,0.604771922143982,19,Male,2019-09-13,1,1,32,32,68,3
26,delay,29,1,1,0.8380968458232019,19,Male,2019-09-13,1,1,33,33,69,3
26,delay,36,2,2,0.9641148931882526,19,Male,2019-09-13,1,1,34,34,70,3
26,delay,1,2,2,0.8054114268647936,19,Male,2019-09-13,1,1,35,35,71,3
26,delay,44,1,2,0.9304512335911568,19,Male,2019-09-13,1,1,36,36,72,3
26,delay,60,1,2,1.2828528390930387,19,Male,2019-09-13,1,1,37,37,73,3
26,delay,17,2,1,1.5145632328687952,19,Male,2019-09-13,1,1,38,38,74,3
26,delay,9,1,2,1.8338218352955664,19,Male,2019-09-13,1,1,39,39,75,3
26,delay,42,1,1,2.2556915116290384,19,Male,2019-09-13,1,1,40,40,76,3
26,delay,30,1,1,1.5992719465691607,19,Male,2019-09-13,1,1,41,41,77,3
26,delay,38,2,1,1.0075396258571345,19,Male,2019-09-13,1,1,42,42,78,3
26,delay,16,2,2,1.2816417870762962,19,Male,2019-09-13,1,1,43,43,79,3
26,delay,41,1,2,1.3704415501219955,19,Male,2019-09-13,1,1,44,44,80,3
26,delay,18,2,2,1.9244874903304208,19,Male,2019-09-13,1,1,45,45,81,3
26,delay,52,2,2,0.668441041832466,19,Male,2019-09-13,1,1,46,46,82,3
26,delay,7,2,1,0.7586333446492972,19,Male,2019-09-13,1,1,47,47,83,3
26,delay,4,2,2,1.0587782256743594,19,Male,2019-09-13,1,1,48,48,84,3
26,delay,6,2,2,0.6775308884739388,19,Male,2019-09-13,1,1,49,49,85,3
26,delay,0,2,1,1.2958905854538898,19,Male,2019-09-13,1,1,50,50,86,3
26,delay,5,2,2,0.9207445759275288,19,Male,2019-09-13,1,1,51,51,87,3
26,delay,20,2,2,1.1281544705038868,19,Male,2019-09-13,1,1,52,52,88,3
26,delay,58,1,1,1.4696729943129867,19,Male,2019-09-13,1,1,53,53,89,3
26,delay,24,1,2,0.8424658466019537,19,Male,2019-09-13,1,1,54,54,90,3
26,delay,22,2,1,1.992785629880018,19,Male,2019-09-13,1,1,55,55,91,3
26,delay,55,2,1,2.1782859022664525,19,Male,2019-09-13,1,1,56,56,92,3
26,delay,47,1,2,2.0804367949572224,19,Male,2019-09-13,1,1,57,57,93,3
26,delay,46,1,2,1.5952646845857998,19,Male,2019-09-13,1,1,58,58,94,3
26,delay,53,2,2,1.74042458859185,19,Male,2019-09-13,1,1,59,59,95,3
26,delay,40,1,1,0.6242306867038678,19,Male,2019-09-13,1,1,60,60,96,3
26,delay,39,2,2,1.8313480984597845,19,Male,2019-09-13,1,1,61,61,97,3
26,delay,10,1,1,1.070206698165748,19,Male,2019-09-13,1,1,62,62,98,3
26,delay,15,1,1,1.4092221131854785,19,Male,2019-09-13,1,1,63,63,99,3
26,delay,23,2,2,0.7174022331341803,19,Male,2019-09-13,1,1,64,0,100,3
26,delay,32,2,2,0.7281607159088708,19,Male,2019-09-13,1,1,65,1,101,3
26,delay,11,1,1,0.6753156248278174,19,Male,2019-09-13,1,1,66,2,102,3
26,delay,40,1,1,0.7497141645162628,19,Male,2019-09-13,1,1,67,3,103,3
26,delay,63,1,1,0.6499710299785875,19,Male,2019-09-13,1,1,68,4,104,3
26,delay,46,1,1,0.563263786731568,19,Male,2019-09-13,1,1,69,5,105,3
26,delay,30,1,1,0.49079390225870156,19,Male,2019-09-13,1,1,70,6,106,3
26,delay,47,1,2,1.5859036884371562,19,Male,2019-09-13,2,2,0,0,107,4
26,delay,22,1,2,1.5215253133678743,19,Male,2019-09-13,2,2,1,1,108,4
26,delay,50,2,2,1.311818532032703,19,Male,2019-09-13,2,2,2,2,109,4
26,delay,42,2,2,0.8249530512512138,19,Male,2019-09-13,2,2,3,3,110,4
26,delay,39,1,1,0.5983478121606822,19,Male,2019-09-13,2,2,4,4,111,4
26,delay,40,2,2,0.6227744561706459,19,Male,2019-09-13,2,2,5,5,112,4
26,delay,2,2,2,0.5511170926833984,19,Male,2019-09-13,2,2,6,6,113,4
26,delay,41,2,2,0.4789199036104037,19,Male,2019-09-13,2,2,7,7,114,4
26,delay,20,1,1,0.42014075040106036,19,Male,2019-09-13,2,2,8,8,115,4
26,delay,56,2,2,0.535862536784407,19,Male,2019-09-13,2,2,9,9,116,4
26,delay,33,2,2,0.47854425178502424,19,Male,2019-09-13,2,2,10,10,117,4
26,delay,30,1,1,0.7078817009019076,19,Male,2019-09-13,2,2,11,11,118,4
26,delay,54,1,1,0.5267838205677435,19,Male,2019-09-13,2,2,12,12,119,4
26,delay,35,2,2,0.6132749480734674,19,Male,2019-09-13,2,2,13,13,120,4
26,delay,8,2,1,1.7654300146732567,19,Male,2019-09-13,3,3,0,0,121,2
26,delay,38,2,1,1.2735580071348522,19,Male,2019-09-13,3,3,1,1,122,2
26,delay,4,2,1,1.4897702123871568,19,Male,2019-09-13,3,3,2,2,123,2
26,delay,61,1,1,1.0232752634356075,19,Male,2019-09-13,3,3,3,3,124,2
26,delay,25,1,1,1.5060166127768753,19,Male,2019-09-13,3,3,4,4,125,2
26,delay,32,2,2,1.360035839966713,19,Male,2019-09-13,3,3,5,5,126,2
26,delay,24,1,2,1.7225516003386474,19,Male,2019-09-13,3,3,6,6,127,2
26,delay,14,2,2,1.1017945336011508,19,Male,2019-09-13,3,3,7,7,128,2
26,delay,31,1,1,1.218638946962983,19,Male,2019-09-13,3,3,8,8,129,2
26,delay,54,1,1,1.1127038954632553,19,Male,2019-09-13,3,3,9,9,130,2
26,delay,43,2,2,0.7973177532126101,19,Male,2019-09-13,3,3,10,10,131,2
26,delay,48,1,1,0.6187121604211825,19,Male,2019-09-13,3,3,11,11,132,2
26,delay,53,1,1,0.7393016524351879,19,Male,2019-09-13,3,3,12,12,133,2
26,delay,57,1,1,0.4470253631457126,19,Male,2019-09-13,3,3,13,13,134,2
26,delay,15,2,2,0.6275654855435278,19,Male,2019-09-13,3,3,14,14,135,2
26,delay,19,1,1,0.844611854273353,19,Male,2019-09-13,3,3,15,15,136,2
26,delay,28,1,1,0.730659496199678,19,Male,2019-09-13,3,3,16,16,137,2
26,delay,63,1,1,0.7424812436893262,19,Male,2019-09-13,3,3,17,17,138,2
26,delay,35,2,2,0.7060479634724288,19,Male,2019-09-13,3,3,18,18,139,2
26,delay,3,1,1,2.038062650685788,19,Male,2019-09-13,4,4,0,0,140,5
26,delay,60,2,2,0.8174372321354895,19,Male,2019-09-13,4,4,1,1,141,5
26,delay,28,2,2,0.5588530468608042,19,Male,2019-09-13,4,4,2,2,142,5
26,delay,5,2,1,0.550056301397035,19,Male,2019-09-13,4,4,3,3,143,5
26,delay,62,1,1,1.7091969460589098,19,Male,2019-09-13,4,4,4,4,144,5
26,delay,6,1,2,0.5600773935511825,19,Male,2019-09-13,4,4,5,5,145,5
26,delay,33,2,1,0.868373146243357,19,Male,2019-09-13,4,4,6,6,146,5
26,delay,63,1,1,0.9480206085991085,19,Male,2019-09-13,4,4,7,7,147,5
26,delay,12,2,1,1.0769322571445628,19,Male,2019-09-13,4,4,8,8,148,5
26,delay,24,2,2,1.4963198488239868,19,Male,2019-09-13,4,4,9,9,149,5
26,delay,25,2,1,1.122700562519185,19,Male,2019-09-13,4,4,10,10,150,5
26,delay,0,2,2,1.737939102974451,19,Male,2019-09-13,4,4,11,11,151,5
26,delay,14,1,1,0.8465194853538378,19,Male,2019-09-13,4,4,12,12,152,5
26,delay,13,2,1,0.6686113991622733,19,Male,2019-09-13,4,4,13,13,153,5
26,delay,37,2,2,1.0143814359362295,19,Male,2019-09-13,4,4,14,14,154,5
26,delay,30,1,1,1.5766929530191192,19,Male,2019-09-13,4,4,15,15,155,5
26,delay,44,2,1,0.7600323771680451,19,Male,2019-09-13,4,4,16,16,156,5
26,delay,22,1,1,1.6841667857006541,19,Male,2019-09-13,4,4,17,17,157,5
26,delay,38,1,2,0.5662575617320726,19,Male,2019-09-13,4,4,18,18,158,5
26,delay,58,1,1,2.02976801103614,19,Male,2019-09-13,4,4,19,19,159,5
26,delay,54,1,1,0.5518807634730365,19,Male,2019-09-13,4,4,20,20,160,5
26,delay,53,2,1,0.6072187604540886,19,Male,2019-09-13,4,4,21,21,161,5
26,delay,43,1,1,1.5753684325086397,19,Male,2019-09-13,4,4,22,22,162,5
26,delay,46,1,1,0.758749904927754,19,Male,2019-09-13,4,4,23,23,163,5
26,delay,39,1,1,0.6106558973624487,19,Male,2019-09-13,4,4,24,24,164,5
26,delay,18,1,1,0.8260963931861625,19,Male,2019-09-13,4,4,25,25,165,5
26,delay,26,1,1,0.6491220259349575,19,Male,2019-09-13,4,4,26,26,166,5
26,delay,29,2,2,0.9147230162952837,19,Male,2019-09-13,4,4,27,27,167,5
26,delay,61,2,2,0.5944042409391841,19,Male,2019-09-13,4,4,28,28,168,5
26,delay,45,2,2,0.522703283289502,19,Male,2019-09-13,4,4,29,29,169,5
26,delay,56,2,2,1.02432337840537,19,Male,2019-09-13,4,4,30,30,170,5
26,delay,34,1,1,0.7877125060831531,19,Male,2019-09-13,4,4,31,31,171,5
26,delay,52,2,2,1.1368760856025801,19,Male,2019-09-13,4,4,32,32,172,5
26,delay,1,2,2,1.3330590920418217,19,Male,2019-09-13,4,4,33,33,173,5
26,delay,15,1,1,1.777246506128904,19,Male,2019-09-13,0,5,0,0,174,6
26,delay,12,2,1,1.9858875493214327,19,Male,2019-09-13,0,5,1,1,175,6
26,delay,22,2,2,2.3141976602610157,19,Male,2019-09-13,0,5,2,2,176,6
26,delay,53,1,2,0.9561937411153849,19,Male,2019-09-13,0,5,3,3,177,6
26,delay,37,1,1,2.0609032092106645,19,Male,2019-09-13,0,5,4,4,178,6
26,delay,61,1,1,0.8240078927078685,19,Male,2019-09-13,0,5,5,5,179,6
26,delay,33,1,1,0.8214141946300515,19,Male,2019-09-13,0,5,6,6,180,6
26,delay,63,1,1,1.187002570509776,19,Male,2019-09-13,0,5,7,7,181,6
26,delay,44,2,1,2.2170612092959345,19,Male,2019-09-13,0,5,8,8,182,6
26,delay,60,2,2,0.7756811355998252,19,Male,2019-09-13,0,5,9,9,183,6
26,delay,50,2,2,0.708272811650204,19,Male,2019-09-13,0,5,10,10,184,6
26,delay,6,2,2,0.8270165082744825,19,Male,2019-09-13,0,5,11,11,185,6
26,delay,30,2,2,0.6323738289092944,19,Male,2019-09-13,0,5,12,12,186,6
26,delay,3,1,1,0.8819176360957499,19,Male,2019-09-13,0,5,13,13,187,6
26,delay,34,2,2,1.3136284627212262,19,Male,2019-09-13,0,5,14,14,188,6
26,delay,56,2,2,0.9390757666542413,19,Male,2019-09-13,0,5,15,15,189,6
26,delay,39,1,1,1.2592019238322791,19,Male,2019-09-13,0,5,16,16,190,6
26,delay,42,2,2,0.6590497461957057,19,Male,2019-09-13,0,5,17,17,191,6
26,delay,20,2,2,0.7488435179807311,19,Male,2019-09-13,0,5,18,18,192,6
26,delay,48,2,2,0.6484968670947637,19,Male,2019-09-13,0,5,19,19,193,6
26,delay,28,2,2,0.6897771379844926,19,Male,2019-09-13,0,5,20,20,194,6
26,delay,55,2,1,1.9281868105708782,19,Male,2019-09-13,1,6,0,0,195,3
26,delay,5,2,2,0.8959540288733479,19,Male,2019-09-13,1,6,1,1,196,3
26,delay,3,2,2,1.2474942631938575,19,Male,2019-09-13,1,6,2,2,197,3
26,delay,0,2,2,0.9509754271148267,19,Male,2019-09-13,1,6,3,3,198,3
26,delay,34,2,1,0.9516509820437022,19,Male,2019-09-13,1,6,4,4,199,3
26,delay,46,1,1,1.1440932383288782,19,Male,2019-09-13,1,6,5,5,200,3
26,delay,60,1,1,0.7973081686805017,19,Male,2019-09-13,1,6,6,6,201,3
26,delay,27,1,1,1.914067867144695,19,Male,2019-09-13,1,6,7,7,202,3
26,delay,50,2,2,0.8337253716172199,19,Male,2019-09-13,1,6,8,8,203,3
26,delay,62,1,1,0.9275805116162701,19,Male,2019-09-13,1,6,9,9,204,3
26,delay,2,2,2,0.6396620926802825,19,Male,2019-09-13,1,6,10,10,205,3
26,delay,43,1,1,0.7286207734532582,19,Male,2019-09-13,1,6,11,11,206,3
26,delay,40,1,1,1.204042631999073,19,Male,2019-09-13,1,6,12,12,207,3
26,delay,53,2,2,0.9226342746578666,19,Male,2019-09-13,1,6,13,13,208,3
26,delay,20,2,2,0.6505241502381978,19,Male,2019-09-13,1,6,14,14,209,3
26,delay,54,2,2,0.8042492250442592,19,Male,2019-09-13,1,6,15,15,210,3
26,delay,17,2,2,1.057342400919424,19,Male,2019-09-13,1,6,16,16,211,3
26,delay,33,2,1,1.395031440357343,19,Male,2019-09-13,2,7,0,0,212,4
26,delay,61,1,1,1.502842586735369,19,Male,2019-09-13,2,7,1,1,213,4
26,delay,47,1,2,1.9007500051015995,19,Male,2019-09-13,2,7,2,2,214,4
26,delay,2,2,2,1.8443162796679644,19,Male,2019-09-13,2,7,3,3,215,4
26,delay,20,1,2,1.0340924901170183,19,Male,2019-09-13,2,7,4,4,216,4
26,delay,24,2,2,1.740891757240206,19,Male,2019-09-13,2,7,5,5,217,4
26,delay,45,1,1,1.4247824465787744,19,Male,2019-09-13,2,7,6,6,218,4
26,delay,18,2,2,0.6847560798400991,19,Male,2019-09-13,2,7,7,7,219,4
26,delay,38,1,1,0.5190484847471453,19,Male,2019-09-13,2,7,8,8,220,4
26,delay,12,1,1,0.7013707117721424,19,Male,2019-09-13,2,7,9,9,221,4
26,delay,7,1,1,1.7839241424471766,19,Male,2019-09-13,2,7,10,10,222,4
26,delay,11,2,2,0.508802929032754,19,Male,2019-09-13,2,7,11,11,223,4
26,delay,19,2,2,0.5150149425949166,19,Male,2019-09-13,2,7,12,12,224,4
26,delay,62,1,1,0.7770724386577967,19,Male,2019-09-13,2,7,13,13,225,4
26,delay,8,2,2,0.5653114756528339,19,Male,2019-09-13,2,7,14,14,226,4
26,delay,1,2,2,0.6207876754046993,19,Male,2019-09-13,2,7,15,15,227,4
26,delay,51,2,2,0.6387286829180994,19,Male,2019-09-13,2,7,16,16,228,4
26,delay,5,2,1,0.8990241709529982,19,Male,2019-09-13,3,8,0,0,229,2
26,delay,14,2,1,0.9623256774561924,19,Male,2019-09-13,3,8,1,1,230,2
26,delay,47,2,1,0.8192663318882296,19,Male,2019-09-13,3,8,2,2,231,2
26,delay,12,2,2,1.1046794777853393,19,Male,2019-09-13,3,8,3,3,232,2
26,delay,60,1,1,0.6449001941023198,19,Male,2019-09-13,3,8,4,4,233,2
26,delay,43,2,2,0.8303098772007615,19,Male,2019-09-13,3,8,5,5,234,2
26,delay,24,1,1,0.5242330982955536,19,Male,2019-09-13,3,8,6,6,235,2
26,delay,33,2,2,0.5626250240388799,19,Male,2019-09-13,3,8,7,7,236,2
26,delay,51,1,1,0.521713293870107,19,Male,2019-09-13,3,8,8,8,237,2
26,delay,48,1,1,0.4481198548842258,19,Male,2019-09-13,3,8,9,9,238,2
26,delay,17,1,1,0.5487277615661696,19,Male,2019-09-13,3,8,10,10,239,2
26,delay,30,1,1,0.523915572020087,19,Male,2019-09-13,3,8,11,11,240,2
26,delay,56,1,1,0.5302314695436507,19,Male,2019-09-13,3,8,12,12,241,2
26,delay,50,1,1,0.4408955910535042,19,Male,2019-09-13,3,8,13,13,242,2
26,delay,8,2,2,0.5416033623778276,19,Male,2019-09-13,3,8,14,14,243,2
26,delay,12,2,1,1.1724430477820533,19,Male,2019-09-13,4,9,0,0,244,5
26,delay,32,2,1,1.5461507591257941,19,Male,2019-09-13,4,9,1,1,245,5
26,delay,29,2,1,1.3848477203346192,19,Male,2019-09-13,4,9,2,2,246,5
26,delay,40,2,1,1.5557476584367578,19,Male,2019-09-13,4,9,3,3,247,5
26,delay,6,1,1,1.2988488049327316,19,Male,2019-09-13,4,9,4,4,248,5
26,delay,9,2,2,0.6839481965312189,19,Male,2019-09-13,4,9,5,5,249,5
26,delay,18,1,1,0.6940042258511312,19,Male,2019-09-13,4,9,6,6,250,5
26,delay,38,1,1,0.9772735283263501,19,Male,2019-09-13,4,9,7,7,251,5
26,delay,3,1,1,0.7543552423371693,19,Male,2019-09-13,4,9,8,8,252,5
26,delay,53,2,2,0.6863941073061142,19,Male,2019-09-13,4,9,9,9,253,5
26,delay,33,2,2,0.4407091564435177,19,Male,2019-09-13,4,9,10,10,254,5
26,delay,41,2,2,0.5895173662447633,19,Male,2019-09-13,4,9,11,11,255,5
26,delay,55,1,1,0.5018290997527401,19,Male,2019-09-13,4,9,12,12,256,5
26,delay,15,1,1,0.5879652903900023,19,Male,2019-09-13,4,9,13,13,257,5
26,delay,36,2,2,0.43628697697067764,19,Male,2019-09-13,4,9,14,14,258,5
26,delay,4,2,2,0.42469463989709766,19,Male,2019-09-13,4,9,15,15,259,5
26,delay,36,2,1,0.3651125502337891,19,Male,2019-09-13,0,10,0,0,260,6
26,delay,19,1,1,0.9118340527916189,19,Male,2019-09-13,0,10,1,1,261,6
26,delay,60,2,2,1.1516368835059438,19,Male,2019-09-13,0,10,2,2,262,6
26,delay,34,2,2,0.4049872958571541,19,Male,2019-09-13,0,10,3,3,263,6
26,delay,5,1,1,0.45645128676960667,19,Male,2019-09-13,0,10,4,4,264,6
26,delay,58,2,2,0.39728689720277544,19,Male,2019-09-13,0,10,5,5,265,6
26,delay,15,1,1,0.46514445745060584,19,Male,2019-09-13,0,10,6,6,266,6
26,delay,45,1,2,0.5176429594807814,19,Male,2019-09-13,0,10,7,7,267,6
26,delay,61,1,2,0.7159008625462775,19,Male,2019-09-13,0,10,8,8,268,6
26,delay,2,2,1,1.9115542462877784,19,Male,2019-09-13,0,10,9,9,269,6
26,delay,25,1,1,1.5830808891228116,19,Male,2019-09-13,0,10,10,10,270,6
26,delay,4,2,2,0.6069547220513414,19,Male,2019-09-13,0,10,11,11,271,6
26,delay,28,2,2,0.727267808524175,19,Male,2019-09-13,0,10,12,12,272,6
26,delay,49,1,1,0.6745389685438568,19,Male,2019-09-13,0,10,13,13,273,6
26,delay,18,2,2,0.5247546823529774,19,Male,2019-09-13,0,10,14,14,274,6
26,delay,13,1,1,0.4676200493572651,19,Male,2019-09-13,0,10,15,15,275,6
26,delay,52,2,2,0.5523216519527523,19,Male,2019-09-13,0,10,16,16,276,6
26,delay,21,1,1,0.735562448174278,19,Male,2019-09-13,0,10,17,17,277,6
26,delay,12,2,2,0.4907428878132123,19,Male,2019-09-13,0,10,18,18,278,6
26,delay,38,2,2,0.4163969084625023,19,Male,2019-09-13,0,10,19,19,279,6
26,delay,40,2,2,0.4841861402719587,19,Male,2019-09-13,0,10,20,20,280,6
26,delay,54,2,2,0.4734134352879664,19,Male,2019-09-13,0,10,21,21,281,6
26,delay,18,2,1,0.7245127192923064,19,Male,2019-09-13,1,11,0,0,282,3
26,delay,4,2,1,1.4720923157401558,19,Male,2019-09-13,1,11,1,1,283,3
26,delay,11,1,1,1.5180458190106947,19,Male,2019-09-13,1,11,2,2,284,3
26,delay,39,2,1,0.7639778034599658,19,Male,2019-09-13,1,11,3,3,285,3
26,delay,61,1,1,1.6078856583862944,19,Male,2019-09-13,1,11,4,4,286,3
26,delay,37,2,1,0.7753571165771973,19,Male,2019-09-13,1,11,5,5,287,3
26,delay,63,1,1,0.932570033558477,19,Male,2019-09-13,1,11,6,6,288,3
26,delay,56,1,2,1.3325140104216189,19,Male,2019-09-13,1,11,7,7,289,3
26,delay,9,1,1,1.293836094605922,19,Male,2019-09-13,1,11,8,8,290,3
26,delay,35,2,1,1.0791101101976892,19,Male,2019-09-13,1,11,9,9,291,3
26,delay,28,1,1,0.6345464259279652,19,Male,2019-09-13,1,11,10,10,292,3
26,delay,53,2,2,0.611856746490048,19,Male,2019-09-13,1,11,11,11,293,3
26,delay,47,1,1,0.49237565924568116,19,Male,2019-09-13,1,11,12,12,294,3
26,delay,55,2,2,0.41823435603419057,19,Male,2019-09-13,1,11,13,13,295,3
26,delay,45,1,1,0.4060347924701091,19,Male,2019-09-13,1,11,14,14,296,3
26,delay,24,1,1,0.4095838519801873,19,Male,2019-09-13,1,11,15,15,297,3
26,delay,33,2,2,0.4132828630417862,19,Male,2019-09-13,1,11,16,16,298,3
26,delay,25,1,1,0.38505672497149135,19,Male,2019-09-13,1,11,17,17,299,3
26,delay,14,1,1,1.6203331830724892,19,Male,2019-09-13,1,11,18,18,300,3
26,delay,20,2,2,0.40492731523636394,19,Male,2019-09-13,1,11,19,19,301,3
26,delay,50,2,2,0.5201806962577393,19,Male,2019-09-13,1,11,20,20,302,3
26,delay,51,2,2,0.4627783147179798,19,Male,2019-09-13,1,11,21,21,303,3
26,delay,46,1,1,0.9317176285521782,19,Male,2019-09-13,2,12,0,0,304,4
26,delay,43,2,1,1.667653255123696,19,Male,2019-09-13,2,12,1,1,305,4
26,delay,52,1,1,0.6931827386902114,19,Male,2019-09-13,2,12,2,2,306,4
26,delay,49,2,2,1.1839893172659686,19,Male,2019-09-13,2,12,3,3,307,4
26,delay,26,2,1,0.7098567328862373,19,Male,2019-09-13,2,12,4,4,308,4
26,delay,21,1,2,1.392669316944648,19,Male,2019-09-13,2,12,5,5,309,4
26,delay,11,2,1,1.2284949378213241,19,Male,2019-09-13,2,12,6,6,310,4
26,delay,16,2,2,0.6591347702710664,19,Male,2019-09-13,2,12,7,7,311,4
26,delay,23,1,2,0.476651461270194,19,Male,2019-09-13,2,12,8,8,312,4
26,delay,58,2,1,0.6589607027995044,19,Male,2019-09-13,2,12,9,9,313,4
26,delay,54,1,1,1.7567448826330292,19,Male,2019-09-13,2,12,10,10,314,4
26,delay,7,1,1,1.0247324215042681,19,Male,2019-09-13,2,12,11,11,315,4
26,delay,53,1,1,0.48300724281443763,19,Male,2019-09-13,2,12,12,12,316,4
26,delay,44,1,1,0.5042923245214297,19,Male,2019-09-13,2,12,13,13,317,4
26,delay,29,1,1,0.478242802789282,19,Male,2019-09-13,2,12,14,14,318,4
26,delay,60,1,1,0.483720517515394,19,Male,2019-09-13,2,12,15,15,319,4
26,delay,27,2,2,0.5368169706821391,19,Male,2019-09-13,2,12,16,16,320,4
26,delay,33,2,2,0.5110729172656647,19,Male,2019-09-13,2,12,17,17,321,4
26,delay,47,1,1,0.5176052397091553,19,Male,2019-09-13,2,12,18,18,322,4
26,delay,56,2,2,0.8599755501677464,19,Male,2019-09-13,2,12,19,19,323,4
26,delay,31,1,1,0.8422957984503228,19,Male,2019-09-13,2,12,20,20,324,4
26,delay,36,1,1,1.0641885394966266,19,Male,2019-09-13,2,12,21,21,325,4
26,delay,54,1,1,1.5827905705518788,19,Male,2019-09-13,3,13,0,0,326,2
26,delay,38,2,1,1.4384725594845804,19,Male,2019-09-13,3,13,1,1,327,2
26,delay,9,2,2,1.4985991124108295,19,Male,2019-09-13,3,13,2,2,328,2
26,delay,0,2,2,0.8717598870634902,19,Male,2019-09-13,3,13,3,3,329,2
26,delay,33,2,2,1.4788215848611799,19,Male,2019-09-13,3,13,4,4,330,2
26,delay,4,2,2,0.5627564248825365,19,Male,2019-09-13,3,13,5,5,331,2
26,delay,34,2,2,0.4914314282377745,19,Male,2019-09-13,3,13,6,6,332,2
26,delay,50,1,1,0.5294102915613621,19,Male,2019-09-13,3,13,7,7,333,2
26,delay,14,2,2,0.5676884396320929,19,Male,2019-09-13,3,13,8,8,334,2
26,delay,48,1,1,0.575440161910592,19,Male,2019-09-13,3,13,9,9,335,2
26,delay,32,2,2,0.5030704512582815,19,Male,2019-09-13,3,13,10,10,336,2
26,delay,11,2,2,0.5409370828024294,19,Male,2019-09-13,3,13,11,11,337,2
26,delay,57,1,1,0.46661305512225226,19,Male,2019-09-13,3,13,12,12,338,2
26,delay,15,2,2,0.5670759571085,19,Male,2019-09-13,3,13,13,13,339,2
26,delay,22,1,1,1.1594022096369372,19,Male,2019-09-13,4,14,0,0,340,5
26,delay,23,1,1,0.8450502693249291,19,Male,2019-09-13,4,14,1,1,341,5
26,delay,5,2,1,1.386990636221526,19,Male,2019-09-13,4,14,2,2,342,5
26,delay,61,2,1,1.5412205994475698,19,Male,2019-09-13,4,14,3,3,343,5
26,delay,45,2,1,0.8530119237766485,19,Male,2019-09-13,4,14,4,4,344,5
26,delay,1,2,1,0.851325355292829,19,Male,2019-09-13,4,14,5,5,345,5
26,delay,30,1,1,0.9293901331261623,19,Male,2019-09-13,4,14,6,6,346,5
26,delay,20,2,1,0.7215903645155777,19,Male,2019-09-13,4,14,7,7,347,5
26,delay,39,1,1,1.7087786276060797,19,Male,2019-09-13,4,14,8,8,348,5
26,delay,29,2,2,0.5920411899905957,19,Male,2019-09-13,4,14,9,9,349,5
26,delay,38,1,1,0.6155248397062678,19,Male,2019-09-13,4,14,10,10,350,5
26,delay,24,2,2,0.9282650327204465,19,Male,2019-09-13,4,14,11,11,351,5
26,delay,4,2,1,0.6563441255166254,19,Male,2019-09-13,4,14,12,12,352,5
26,delay,57,2,2,1.193630429096629,19,Male,2019-09-13,4,14,13,13,353,5
26,delay,18,1,1,1.8878578817934795,19,Male,2019-09-13,4,14,14,14,354,5
26,delay,26,1,2,0.7747257741675639,19,Male,2019-09-13,4,14,15,15,355,5
26,delay,53,2,1,2.403214466583904,19,Male,2019-09-13,4,14,16,16,356,5
26,delay,35,1,1,0.8541512463912113,19,Male,2019-09-13,4,14,17,17,357,5
26,delay,25,2,1,0.9324955215502087,19,Male,2019-09-13,4,14,18,18,358,5
26,delay,58,1,2,2.2606040481350647,19,Male,2019-09-13,4,14,19,19,359,5
26,delay,52,2,1,1.1076979870626928,19,Male,2019-09-13,4,14,20,20,360,5
26,delay,17,2,2,1.2090590524671825,19,Male,2019-09-13,4,14,21,21,361,5
26,delay,21,2,2,0.5443111473059616,19,Male,2019-09-13,4,14,22,22,362,5
26,delay,33,2,2,0.5509819816979871,19,Male,2019-09-13,4,14,23,23,363,5
26,delay,60,2,2,1.0539055731887856,19,Male,2019-09-13,4,14,24,24,364,5
26,delay,44,2,2,0.48081269412614347,19,Male,2019-09-13,4,14,25,25,365,5
26,delay,28,2,2,0.8545927532277346,19,Male,2019-09-13,4,14,26,26,366,5
26,delay,43,1,1,0.8368811561294933,19,Male,2019-09-13,4,14,27,27,367,5
26,delay,63,1,1,0.5786095502753597,19,Male,2019-09-13,4,14,28,28,368,5
26,delay,62,1,1,0.6662369086116087,19,Male,2019-09-13,4,14,29,29,369,5
26,delay,14,1,1,0.4839171550138417,19,Male,2019-09-13,4,14,30,30,370,5
26,delay,8,2,2,0.7291936811343476,19,Male,2019-09-13,4,14,31,31,371,5
26,delay,59,1,1,0.6286383347896844,19,Male,2019-09-13,4,14,32,32,372,5
26,delay,17,1,1,0.5222354962843383,19,Male,2019-09-13,0,15,0,0,373,6
26,delay,30,2,1,1.041046841154639,19,Male,2019-09-13,0,15,1,1,374,6
26,delay,0,2,1,1.5559984021665514,19,Male,2019-09-13,0,15,2,2,375,6
26,delay,33,1,1,1.2031206618403303,19,Male,2019-09-13,0,15,3,3,376,6
26,delay,29,1,2,1.6416600038710385,19,Male,2019-09-13,0,15,4,4,377,6
26,delay,38,2,1,1.4344068627724482,19,Male,2019-09-13,0,15,5,5,378,6
26,delay,31,1,2,1.878493175503536,19,Male,2019-09-13,0,15,6,6,379,6
26,delay,9,1,1,0.7655369904205145,19,Male,2019-09-13,0,15,7,7,380,6
26,delay,18,2,1,2.633427199913058,19,Male,2019-09-13,0,15,8,8,381,6
26,delay,7,1,1,0.6564662510072594,19,Male,2019-09-13,0,15,9,9,382,6
26,delay,60,2,2,0.9538823229686386,19,Male,2019-09-13,0,15,10,10,383,6
26,delay,63,1,1,0.9227245547672283,19,Male,2019-09-13,0,15,11,11,384,6
26,delay,27,1,1,0.4267083191880374,19,Male,2019-09-13,0,15,12,12,385,6
26,delay,37,1,1,0.5430095060000895,19,Male,2019-09-13,0,15,13,13,386,6
26,delay,55,1,1,0.5017066650843844,19,Male,2019-09-13,0,15,14,14,387,6
26,delay,15,1,1,0.5397433447787989,19,Male,2019-09-13,0,15,15,15,388,6
26,delay,22,2,2,0.45049218118674617,19,Male,2019-09-13,0,15,16,16,389,6
26,delay,24,2,2,0.6631612013188715,19,Male,2019-09-13,0,15,17,17,390,6
26,delay,43,1,1,0.604798820670112,19,Male,2019-09-13,0,15,18,18,391,6
26,delay,48,2,2,0.6287412912161017,19,Male,2019-09-13,0,15,19,19,392,6
26,delay,16,2,2,0.7500898163416423,19,Male,2019-09-13,0,15,20,20,393,6
26,delay,28,1,1,1.5365213960767505,19,Male,2019-09-13,1,16,0,0,394,3
26,delay,57,1,1,1.6152066950735389,19,Male,2019-09-13,1,16,1,1,395,3
26,delay,23,2,1,2.144060465412622,19,Male,2019-09-13,1,16,2,2,396,3
26,delay,62,1,1,2.5415829565999957,19,Male,2019-09-13,1,16,3,3,397,3
26,delay,0,2,2,1.6362404146948393,19,Male,2019-09-13,1,16,4,4,398,3
26,delay,22,2,1,0.7571820609709903,19,Male,2019-09-13,1,16,5,5,399,3
26,delay,36,2,1,1.5212186083381312,19,Male,2019-09-13,1,16,6,6,400,3
26,delay,52,2,1,1.2600385607365752,19,Male,2019-09-13,1,16,7,7,401,3
26,delay,25,1,1,0.8359001328844897,19,Male,2019-09-13,1,16,8,8,402,3
26,delay,27,1,1,1.1057619115636044,19,Male,2019-09-13,1,16,9,9,403,3
26,delay,44,1,2,1.6385799680811033,19,Male,2019-09-13,1,16,10,10,404,3
26,delay,45,1,1,0.9840599954613936,19,Male,2019-09-13,1,16,11,11,405,3
26,delay,18,2,2,1.6891896989154702,19,Male,2019-09-13,1,16,12,12,406,3
26,delay,1,2,1,0.9398375823730021,19,Male,2019-09-13,1,16,13,13,407,3
26,delay,17,2,1,1.5008901247783797,19,Male,2019-09-13,1,16,14,14,408,3
26,delay,63,1,1,0.6659833822759538,19,Male,2019-09-13,1,16,15,15,409,3
26,delay,37,2,2,0.8998490590774963,19,Male,2019-09-13,1,16,16,16,410,3
26,delay,11,1,1,0.6109023125927706,19,Male,2019-09-13,1,16,17,17,411,3
26,delay,35,2,1,0.6350120486840751,19,Male,2019-09-13,1,16,18,18,412,3
26,delay,31,1,1,0.5887042269023368,19,Male,2019-09-13,1,16,19,19,413,3
26,delay,24,1,2,0.7409483368974179,19,Male,2019-09-13,1,16,20,20,414,3
26,delay,48,2,1,0.6384562966977683,19,Male,2019-09-13,1,16,21,21,415,3
26,delay,47,1,1,0.6314200133683698,19,Male,2019-09-13,1,16,22,22,416,3
26,delay,59,1,1,1.3123917488919687,19,Male,2019-09-13,1,16,23,23,417,3
26,delay,14,1,2,1.9294603166363231,19,Male,2019-09-13,1,16,24,24,418,3
26,delay,21,2,1,1.1054975639835902,19,Male,2019-09-13,1,16,25,25,419,3
26,delay,19,2,1,0.7736118041866575,19,Male,2019-09-13,1,16,26,26,420,3
26,delay,6,2,1,0.8499761005050459,19,Male,2019-09-13,1,16,27,27,421,3
26,delay,51,2,1,1.32852777257267,19,Male,2019-09-13,1,16,28,28,422,3
26,delay,7,2,1,1.1138775368863207,19,Male,2019-09-13,1,16,29,29,423,3
26,delay,4,2,1,0.574473360875345,19,Male,2019-09-13,1,16,30,30,424,3
26,delay,3,2,1,0.9013668161242094,19,Male,2019-09-13,1,16,31,31,425,3
26,delay,16,2,2,0.39049671992597723,19,Male,2019-09-13,1,16,32,32,426,3
26,delay,39,2,2,1.1974583675746544,19,Male,2019-09-13,1,16,33,33,427,3
26,delay,53,2,2,0.8157614848978483,19,Male,2019-09-13,1,16,34,34,428,3
26,delay,32,2,1,1.437322415624294,19,Male,2019-09-13,1,16,35,35,429,3
26,delay,43,1,2,0.6173360071088609,19,Male,2019-09-13,1,16,36,36,430,3
26,delay,12,1,1,0.8338768690609868,19,Male,2019-09-13,1,16,37,37,431,3
26,delay,5,2,1,0.6238584358416119,19,Male,2019-09-13,1,16,38,38,432,3
26,delay,40,1,1,1.4005184304369322,19,Male,2019-09-13,1,16,39,39,433,3
26,delay,50,2,2,1.3795122276987968,19,Male,2019-09-13,1,16,40,40,434,3
26,delay,42,1,1,1.0227453315592356,19,Male,2019-09-13,1,16,41,41,435,3
26,delay,58,1,1,0.56089455221354,19,Male,2019-09-13,1,16,42,42,436,3
26,delay,26,1,1,0.520016213317831,19,Male,2019-09-13,1,16,43,43,437,3
26,delay,38,2,2,0.8303305921572246,19,Male,2019-09-13,1,16,44,44,438,3
26,delay,30,1,1,0.6840826891602774,19,Male,2019-09-13,1,16,45,45,439,3
26,delay,15,1,1,0.8059036389686298,19,Male,2019-09-13,1,16,46,46,440,3
26,delay,46,1,1,1.0264026035301868,19,Male,2019-09-13,1,16,47,47,441,3
26,delay,8,1,1,0.5488984280746081,19,Male,2019-09-13,1,16,48,48,442,3
26,delay,56,1,1,0.5393577992426799,19,Male,2019-09-13,1,16,49,49,443,3
26,delay,41,1,1,0.6420653368277272,19,Male,2019-09-13,1,16,50,50,444,3
26,delay,59,2,1,1.7883494137049638,19,Male,2019-09-13,2,17,0,0,445,4
