sub_num,condition,stim_id,cat,resp,rt,age,gender,date,prob_num,num_problems_solved,current_trial_prob,current_trial_stim,current_trial_exp,relevant_dim
13,immediate,47,1,1,3.867186787440005,18,Female,2019-08-07,0,0,0,0,0,1
13,immediate,9,2,2,1.0497387904997595,18,Female,2019-08-07,0,0,1,1,1,1
13,immediate,60,1,1,0.42845809254777123,18,Female,2019-08-07,0,0,2,2,2,1
13,immediate,58,1,1,0.5761789673870226,18,Female,2019-08-07,0,0,3,3,3,1
13,immediate,42,1,1,0.6911287707025622,18,Female,2019-08-07,0,0,4,4,4,1
13,immediate,14,2,2,1.1283792829344748,18,Female,2019-08-07,0,0,5,5,5,1
13,immediate,18,2,2,1.6610865090860898,18,Female,2019-08-07,0,0,6,6,6,1
13,immediate,31,2,2,0.4458670093190449,18,Female,2019-08-07,0,0,7,7,7,1
13,immediate,16,2,2,0.6744668293149516,18,Female,2019-08-07,0,0,8,8,8,1
13,immediate,27,2,2,0.6202956550832823,18,Female,2019-08-07,0,0,9,9,9,1
13,immediate,61,1,1,0.5808039693583851,18,Female,2019-08-07,0,0,10,10,10,1
13,immediate,56,1,1,0.8812058705580057,18,Female,2019-08-07,0,0,11,11,11,1
13,immediate,23,2,1,0.8726363686109835,18,Female,2019-08-07,0,0,12,12,12,1
13,immediate,15,2,2,0.8072648921261134,18,Female,2019-08-07,0,0,13,13,13,1
13,immediate,43,1,1,0.5649981433825815,18,Female,2019-08-07,0,0,14,14,14,1
13,immediate,0,2,2,1.2917869500060988,18,Female,2019-08-07,0,0,15,15,15,1
13,immediate,37,1,1,0.8841885160572929,18,Female,2019-08-07,0,0,16,16,16,1
13,immediate,6,2,2,1.6352806120003152,18,Female,2019-08-07,0,0,17,17,17,1
13,immediate,5,2,2,0.49446616767363594,18,Female,2019-08-07,0,0,18,18,18,1
13,immediate,49,1,1,0.5272044662697226,18,Female,2019-08-07,0,0,19,19,19,1
13,immediate,44,1,1,0.5913015087608073,18,Female,2019-08-07,0,0,20,20,20,1
13,immediate,63,1,1,1.7192646373623575,18,Female,2019-08-07,0,0,21,21,21,1
13,immediate,46,1,1,0.9700572938772893,18,Female,2019-08-07,0,0,22,22,22,1
13,immediate,35,1,1,0.6507463415673556,18,Female,2019-08-07,0,0,23,23,23,1
13,immediate,28,2,2,0.5906120405879847,18,Female,2019-08-07,0,0,24,24,24,1
13,immediate,49,2,1,1.127296230464708,18,Female,2019-08-07,1,1,0,0,25,5
13,immediate,2,1,1,0.5872351924344912,18,Female,2019-08-07,1,1,1,1,26,5
13,immediate,21,2,2,0.7393055911543343,18,Female,2019-08-07,1,1,2,2,27,5
13,immediate,25,2,1,0.4465011345309904,18,Female,2019-08-07,1,1,3,3,28,5
13,immediate,58,1,1,1.5987078809921513,18,Female,2019-08-07,1,1,4,4,29,5
13,immediate,32,2,2,0.6859061265895434,18,Female,2019-08-07,1,1,5,5,30,5
13,immediate,35,1,2,0.5725767280691798,18,Female,2019-08-07,1,1,6,6,31,5
13,immediate,42,1,1,2.500084251156295,18,Female,2019-08-07,1,1,7,7,32,5
13,immediate,54,1,2,1.7371728774969597,18,Female,2019-08-07,1,1,8,8,33,5
13,immediate,3,1,2,0.748295885112384,18,Female,2019-08-07,1,1,9,9,34,5
13,immediate,46,1,2,1.0324306659367721,18,Female,2019-08-07,1,1,10,10,35,5
13,immediate,50,1,1,2.2822685790806645,18,Female,2019-08-07,1,1,11,11,36,5
13,immediate,59,1,2,0.5225745174420808,18,Female,2019-08-07,1,1,12,12,37,5
13,immediate,34,1,1,1.4729748572917742,18,Female,2019-08-07,1,1,13,13,38,5
13,immediate,12,2,2,3.5174934771048356,18,Female,2019-08-07,1,1,14,14,39,5
13,immediate,60,2,1,1.4001920617165524,18,Female,2019-08-07,1,1,15,15,40,5
13,immediate,51,1,2,1.2991478729900336,18,Female,2019-08-07,1,1,16,16,41,5
13,immediate,38,1,2,1.035776287056251,18,Female,2019-08-07,1,1,17,17,42,5
13,immediate,48,2,1,0.5419430078809455,18,Female,2019-08-07,1,1,18,18,43,5
13,immediate,45,2,2,1.4765248454332323,18,Female,2019-08-07,1,1,19,19,44,5
13,immediate,62,1,1,1.1217631710833302,18,Female,2019-08-07,1,1,20,20,45,5
13,immediate,8,2,2,0.6309641702255249,18,Female,2019-08-07,1,1,21,21,46,5
13,immediate,52,2,2,0.55971737370146,18,Female,2019-08-07,1,1,22,22,47,5
13,immediate,18,1,1,0.6585472256329012,18,Female,2019-08-07,1,1,23,23,48,5
13,immediate,29,2,2,0.9233243372682409,18,Female,2019-08-07,1,1,24,24,49,5
13,immediate,20,2,2,0.6189921583045361,18,Female,2019-08-07,1,1,25,25,50,5
13,immediate,56,2,2,0.6441085872183976,18,Female,2019-08-07,1,1,26,26,51,5
13,immediate,41,2,2,0.620874746512527,18,Female,2019-08-07,1,1,27,27,52,5
13,immediate,23,1,1,0.9656576830720951,18,Female,2019-08-07,1,1,28,28,53,5
13,immediate,30,1,1,0.9983774309548608,18,Female,2019-08-07,1,1,29,29,54,5
13,immediate,27,1,1,0.5464359906090976,18,Female,2019-08-07,1,1,30,30,55,5
13,immediate,23,2,2,1.6771675039735783,18,Female,2019-08-07,2,2,0,0,56,3
13,immediate,35,2,1,0.7618740796133352,18,Female,2019-08-07,2,2,1,1,57,3
13,immediate,40,1,2,0.4377340674882362,18,Female,2019-08-07,2,2,2,2,58,3
13,immediate,57,1,1,0.617931985046198,18,Female,2019-08-07,2,2,3,3,59,3
13,immediate,21,2,2,0.49887783644226147,18,Female,2019-08-07,2,2,4,4,60,3
13,immediate,16,2,1,0.44036084847266466,18,Female,2019-08-07,2,2,5,5,61,3
13,immediate,41,1,1,0.9726154372228848,18,Female,2019-08-07,2,2,6,6,62,3
13,immediate,26,1,2,0.7332150828433441,18,Female,2019-08-07,2,2,7,7,63,3
13,immediate,11,1,1,1.2083817068942153,18,Female,2019-08-07,2,2,8,8,64,3
13,immediate,36,2,2,1.132627087072251,18,Female,2019-08-07,2,2,9,9,65,3
13,immediate,52,2,2,0.8340007982988027,18,Female,2019-08-07,2,2,10,10,66,3
13,immediate,6,2,2,0.5270990363842429,18,Female,2019-08-07,2,2,11,11,67,3
13,immediate,2,2,2,0.7256940053684957,18,Female,2019-08-07,2,2,12,12,68,3
13,immediate,56,1,1,0.44899682380855666,18,Female,2019-08-07,2,2,13,13,69,3
13,immediate,10,1,1,0.7570202855149546,18,Female,2019-08-07,2,2,14,14,70,3
13,immediate,44,1,1,0.8124949565244606,18,Female,2019-08-07,2,2,15,15,71,3
13,immediate,33,2,2,0.6127526259315346,18,Female,2019-08-07,2,2,16,16,72,3
13,immediate,4,2,2,0.6851047357813513,18,Female,2019-08-07,2,2,17,17,73,3
13,immediate,46,1,1,0.7277979654190858,18,Female,2019-08-07,2,2,18,18,74,3
13,immediate,30,1,1,1.2187954589098808,18,Female,2019-08-07,2,2,19,19,75,3
13,immediate,14,1,1,1.80683080543713,18,Female,2019-08-07,3,3,0,0,76,4
13,immediate,4,1,1,0.850656246937433,18,Female,2019-08-07,3,3,1,1,77,4
13,immediate,52,1,1,0.5454033342430193,18,Female,2019-08-07,3,3,2,2,78,4
13,immediate,24,2,2,0.8390169111389696,18,Female,2019-08-07,3,3,3,3,79,4
13,immediate,58,2,2,0.6197218196884933,18,Female,2019-08-07,3,3,4,4,80,4
13,immediate,17,2,2,0.7400197936112818,18,Female,2019-08-07,3,3,5,5,81,4
13,immediate,31,1,1,0.6077998946948355,18,Female,2019-08-07,3,3,6,6,82,4
13,immediate,18,2,2,0.5042736205450637,18,Female,2019-08-07,3,3,7,7,83,4
13,immediate,0,2,2,0.6858180107028602,18,Female,2019-08-07,3,3,8,8,84,4
13,immediate,61,1,1,0.7116069029671053,18,Female,2019-08-07,3,3,9,9,85,4
13,immediate,11,2,2,0.4826456532427983,18,Female,2019-08-07,3,3,10,10,86,4
13,immediate,32,2,2,0.616115251870724,18,Female,2019-08-07,3,3,11,11,87,4
13,immediate,2,2,2,1.9205791408985533,18,Female,2019-08-07,4,4,0,0,88,6
13,immediate,12,2,1,1.1877100288547808,18,Female,2019-08-07,4,4,1,1,89,6
13,immediate,42,2,2,1.2738357340531365,18,Female,2019-08-07,4,4,2,2,90,6
13,immediate,9,1,1,1.5689896384992608,18,Female,2019-08-07,4,4,3,3,91,6
13,immediate,52,2,2,1.216166822852756,18,Female,2019-08-07,4,4,4,4,92,6
13,immediate,37,1,1,0.9189061757479067,18,Female,2019-08-07,4,4,5,5,93,6
13,immediate,32,2,2,0.42267861786058347,18,Female,2019-08-07,4,4,6,6,94,6
13,immediate,48,2,2,0.9186557411212561,18,Female,2019-08-07,4,4,7,7,95,6
13,immediate,35,1,1,3.4143474925785995,18,Female,2019-08-07,4,4,8,8,96,6
13,immediate,17,1,1,0.7938449970424699,18,Female,2019-08-07,4,4,9,9,97,6
13,immediate,55,1,1,0.5923165419499128,18,Female,2019-08-07,4,4,10,10,98,6
13,immediate,19,1,1,0.5276036157811177,18,Female,2019-08-07,4,4,11,11,99,6
13,immediate,56,2,2,0.5340561721768609,18,Female,2019-08-07,4,4,12,12,100,6
13,immediate,6,2,2,0.57246171364568,18,Female,2019-08-07,4,4,13,13,101,6
13,immediate,15,1,1,0.7560878029980813,18,Female,2019-08-07,4,4,14,14,102,6
13,immediate,41,1,1,0.6719414588951622,18,Female,2019-08-07,4,4,15,15,103,6
13,immediate,24,2,2,1.2418172031266295,18,Female,2019-08-07,4,4,16,16,104,6
13,immediate,16,2,2,0.5396906421228778,18,Female,2019-08-07,4,4,17,17,105,6
13,immediate,28,2,2,1.010383452517999,18,Female,2019-08-07,4,4,18,18,106,6
13,immediate,34,2,2,0.622442281774056,18,Female,2019-08-07,4,4,19,19,107,6
13,immediate,51,1,1,0.7590692117828439,18,Female,2019-08-07,4,4,20,20,108,6
13,immediate,16,2,2,1.4962705337056832,18,Female,2019-08-07,0,5,0,0,109,1
13,immediate,56,1,2,0.46580500665186264,18,Female,2019-08-07,0,5,1,1,110,1
13,immediate,47,1,2,1.409203998173325,18,Female,2019-08-07,0,5,2,2,111,1
13,immediate,26,2,2,1.0838878708327684,18,Female,2019-08-07,0,5,3,3,112,1
13,immediate,40,1,1,1.2954077400390815,18,Female,2019-08-07,0,5,4,4,113,1
13,immediate,54,1,1,0.8239289977627777,18,Female,2019-08-07,0,5,5,5,114,1
13,immediate,11,2,2,0.6514336454893055,18,Female,2019-08-07,0,5,6,6,115,1
13,immediate,51,1,1,0.7089380736997555,18,Female,2019-08-07,0,5,7,7,116,1
13,immediate,37,1,1,0.9113455234200956,18,Female,2019-08-07,0,5,8,8,117,1
13,immediate,23,2,2,0.5907418955794128,18,Female,2019-08-07,0,5,9,9,118,1
13,immediate,62,1,1,0.8225324382401595,18,Female,2019-08-07,0,5,10,10,119,1
13,immediate,6,2,2,0.45218043536624464,18,Female,2019-08-07,0,5,11,11,120,1
13,immediate,4,2,2,0.9846328983912827,18,Female,2019-08-07,0,5,12,12,121,1
13,immediate,59,1,1,0.4261358524381649,18,Female,2019-08-07,0,5,13,13,122,1
13,immediate,15,2,2,0.5253401195950573,18,Female,2019-08-07,0,5,14,14,123,1
13,immediate,19,1,2,0.8706588625882432,18,Female,2019-08-07,1,6,0,0,124,5
13,immediate,23,1,1,0.5279307266901014,18,Female,2019-08-07,1,6,1,1,125,5
13,immediate,40,2,2,0.7103247395079961,18,Female,2019-08-07,1,6,2,2,126,5
13,immediate,52,2,1,0.5768671988444112,18,Female,2019-08-07,1,6,3,3,127,5
13,immediate,55,1,1,2.2165427839736367,18,Female,2019-08-07,1,6,4,4,128,5
13,immediate,63,1,1,0.598975011262155,18,Female,2019-08-07,1,6,5,5,129,5
13,immediate,21,2,1,0.550282790163692,18,Female,2019-08-07,1,6,6,6,130,5
13,immediate,29,2,1,0.5085412121097761,18,Female,2019-08-07,1,6,7,7,131,5
13,immediate,16,2,2,1.218751864733349,18,Female,2019-08-07,1,6,8,8,132,5
13,immediate,1,2,1,1.5608607159902022,18,Female,2019-08-07,1,6,9,9,133,5
13,immediate,20,2,1,0.6746115248770366,18,Female,2019-08-07,1,6,10,10,134,5
13,immediate,57,2,1,1.8205277245051548,18,Female,2019-08-07,1,6,11,11,135,5
13,immediate,46,1,2,1.9373471305298153,18,Female,2019-08-07,1,6,12,12,136,5
13,immediate,2,1,2,1.0015638251188648,18,Female,2019-08-07,1,6,13,13,137,5
13,immediate,8,2,1,0.9709183561462851,18,Female,2019-08-07,1,6,14,14,138,5
13,immediate,39,1,1,0.8865667174850387,18,Female,2019-08-07,1,6,15,15,139,5
13,immediate,56,2,2,0.7098025369341485,18,Female,2019-08-07,1,6,16,16,140,5
13,immediate,25,2,2,0.4642247950687306,18,Female,2019-08-07,1,6,17,17,141,5
13,immediate,51,1,1,0.7251241892954567,18,Female,2019-08-07,1,6,18,18,142,5
13,immediate,31,1,2,0.5919220301148016,18,Female,2019-08-07,1,6,19,19,143,5
13,immediate,7,1,2,0.8559311422268365,18,Female,2019-08-07,1,6,20,20,144,5
13,immediate,11,1,2,0.8863892489971477,18,Female,2019-08-07,1,6,21,21,145,5
13,immediate,15,1,2,0.5598759822987631,18,Female,2019-08-07,1,6,22,22,146,5
13,immediate,54,1,2,2.0870594244261156,18,Female,2019-08-07,1,6,23,23,147,5
13,immediate,32,2,1,0.9096243264157238,18,Female,2019-08-07,1,6,24,24,148,5
13,immediate,4,2,2,2.0290318661063793,18,Female,2019-08-07,1,6,25,25,149,5
13,immediate,60,2,1,0.663087203502073,18,Female,2019-08-07,1,6,26,26,150,5
13,immediate,18,1,2,1.5681035327670543,18,Female,2019-08-07,1,6,27,27,151,5
13,immediate,58,1,2,1.039118507213061,18,Female,2019-08-07,1,6,28,28,152,5
13,immediate,45,2,2,1.6015300628223486,18,Female,2019-08-07,1,6,29,29,153,5
13,immediate,35,1,2,2.0577288918393606,18,Female,2019-08-07,1,6,30,30,154,5
13,immediate,17,2,1,1.7489003291830159,18,Female,2019-08-07,1,6,31,31,155,5
13,immediate,36,2,1,0.5203487410399248,18,Female,2019-08-07,1,6,32,32,156,5
13,immediate,37,2,1,1.406753758143168,18,Female,2019-08-07,1,6,33,33,157,5
13,immediate,24,2,2,0.6497300716637255,18,Female,2019-08-07,1,6,34,34,158,5
13,immediate,53,2,2,0.5623107634019107,18,Female,2019-08-07,1,6,35,35,159,5
13,immediate,12,2,2,0.8739237881054578,18,Female,2019-08-07,1,6,36,36,160,5
13,immediate,22,1,1,0.7348645504207525,18,Female,2019-08-07,1,6,37,37,161,5
13,immediate,13,2,2,0.3415486197191058,18,Female,2019-08-07,1,6,38,38,162,5
13,immediate,42,1,1,0.5837318902540574,18,Female,2019-08-07,1,6,39,39,163,5
13,immediate,28,2,2,0.826361614615962,18,Female,2019-08-07,1,6,40,40,164,5
13,immediate,27,1,1,0.5518701128530665,18,Female,2019-08-07,1,6,41,41,165,5
13,immediate,6,1,1,0.9587330110261973,18,Female,2019-08-07,1,6,42,42,166,5
13,immediate,38,1,1,0.5271973551625706,18,Female,2019-08-07,1,6,43,43,167,5
13,immediate,14,1,1,0.5816177273081848,18,Female,2019-08-07,1,6,44,44,168,5
13,immediate,43,1,1,0.5481157576869009,18,Female,2019-08-07,1,6,45,45,169,5
13,immediate,58,1,2,0.48419896629093273,18,Female,2019-08-07,2,7,0,0,170,3
13,immediate,45,1,2,0.7084891464419343,18,Female,2019-08-07,2,7,1,1,171,3
13,immediate,16,2,2,0.6070986777358485,18,Female,2019-08-07,2,7,2,2,172,3
13,immediate,32,2,1,2.0394663330844196,18,Female,2019-08-07,2,7,3,3,173,3
13,immediate,42,1,1,0.7056620177554578,18,Female,2019-08-07,2,7,4,4,174,3
13,immediate,53,2,2,0.6680492100949778,18,Female,2019-08-07,2,7,5,5,175,3
13,immediate,57,1,1,0.5176258055271319,18,Female,2019-08-07,2,7,6,6,176,3
13,immediate,47,1,1,0.6341196465346002,18,Female,2019-08-07,2,7,7,7,177,3
13,immediate,44,1,1,0.8828661593870493,18,Female,2019-08-07,2,7,8,8,178,3
13,immediate,17,2,2,0.5938531593565131,18,Female,2019-08-07,2,7,9,9,179,3
13,immediate,62,1,1,0.5054299483326758,18,Female,2019-08-07,2,7,10,10,180,3
13,immediate,22,2,2,0.6713339230391284,18,Female,2019-08-07,2,7,11,11,181,3
13,immediate,30,1,1,0.9314860327049246,18,Female,2019-08-07,2,7,12,12,182,3
13,immediate,25,1,1,0.7237399969144462,18,Female,2019-08-07,2,7,13,13,183,3
13,immediate,21,2,2,0.6867127734331007,18,Female,2019-08-07,2,7,14,14,184,3
13,immediate,5,2,2,1.04880105194934,18,Female,2019-08-07,2,7,15,15,185,3
13,immediate,8,2,1,0.8369216080882325,18,Female,2019-08-07,3,8,0,0,186,4
13,immediate,47,1,2,0.5948530427958758,18,Female,2019-08-07,3,8,1,1,187,4
13,immediate,20,1,2,0.486422578444035,18,Female,2019-08-07,3,8,2,2,188,4
13,immediate,44,1,1,0.6994026979537011,18,Female,2019-08-07,3,8,3,3,189,4
13,immediate,51,2,2,0.7098971455707215,18,Female,2019-08-07,3,8,4,4,190,4
13,immediate,16,2,2,0.689068095649418,18,Female,2019-08-07,3,8,5,5,191,4
13,immediate,9,2,2,0.5392104878319515,18,Female,2019-08-07,3,8,6,6,192,4
13,immediate,13,1,1,0.46563897776832164,18,Female,2019-08-07,3,8,7,7,193,4
13,immediate,30,1,1,0.5346074375374883,18,Female,2019-08-07,3,8,8,8,194,4
13,immediate,53,1,1,0.6002386240070336,18,Female,2019-08-07,3,8,9,9,195,4
13,immediate,48,2,2,0.40030274763921625,18,Female,2019-08-07,3,8,10,10,196,4
13,immediate,29,1,1,0.33991770285319944,18,Female,2019-08-07,3,8,11,11,197,4
13,immediate,34,2,2,0.4376938742771017,18,Female,2019-08-07,3,8,12,12,198,4
13,immediate,35,2,2,0.49546790618478553,18,Female,2019-08-07,3,8,13,13,199,4
13,immediate,37,1,1,0.4206312374826666,18,Female,2019-08-07,3,8,14,14,200,4
13,immediate,38,2,2,2.154978223008584,18,Female,2019-08-07,4,9,0,0,201,6
13,immediate,9,1,1,1.1911184132204653,18,Female,2019-08-07,4,9,1,1,202,6
13,immediate,20,2,2,1.4371868214493588,18,Female,2019-08-07,4,9,2,2,203,6
13,immediate,58,2,2,0.6331577920554992,18,Female,2019-08-07,4,9,3,3,204,6
13,immediate,10,2,1,0.625935071884669,18,Female,2019-08-07,4,9,4,4,205,6
13,immediate,47,1,2,0.4848769948584959,18,Female,2019-08-07,4,9,5,5,206,6
13,immediate,14,2,2,0.7298453457951837,18,Female,2019-08-07,4,9,6,6,207,6
13,immediate,19,1,1,0.7091328561873524,18,Female,2019-08-07,4,9,7,7,208,6
13,immediate,25,1,1,0.7211271289634169,18,Female,2019-08-07,4,9,8,8,209,6
13,immediate,45,1,1,0.5238875987561187,18,Female,2019-08-07,4,9,9,9,210,6
13,immediate,62,2,2,0.7377179592858738,18,Female,2019-08-07,4,9,10,10,211,6
13,immediate,18,2,2,0.898922110811327,18,Female,2019-08-07,4,9,11,11,212,6
13,immediate,50,2,2,0.4339113838614139,18,Female,2019-08-07,4,9,12,12,213,6
13,immediate,7,1,1,0.5340972929243435,18,Female,2019-08-07,4,9,13,13,214,6
13,immediate,40,2,2,0.4874144232417166,18,Female,2019-08-07,4,9,14,14,215,6
13,immediate,39,1,1,1.0829396202116186,18,Female,2019-08-07,4,9,15,15,216,6
13,immediate,31,1,1,0.49443401310418267,18,Female,2019-08-07,4,9,16,16,217,6
13,immediate,23,1,1,0.5481343083993124,18,Female,2019-08-07,4,9,17,17,218,6
13,immediate,46,1,2,0.6215051615818084,18,Female,2019-08-07,0,10,0,0,219,1
13,immediate,62,1,2,1.3022034846289898,18,Female,2019-08-07,0,10,1,1,220,1
13,immediate,2,2,2,0.9107673595262895,18,Female,2019-08-07,0,10,2,2,221,1
13,immediate,15,2,1,0.7180551308629219,18,Female,2019-08-07,0,10,3,3,222,1
13,immediate,31,2,2,0.9369424158030597,18,Female,2019-08-07,0,10,4,4,223,1
13,immediate,42,1,2,1.2647653628500848,18,Female,2019-08-07,0,10,5,5,224,1
13,immediate,36,1,2,0.8518892510055593,18,Female,2019-08-07,0,10,6,6,225,1
13,immediate,23,2,2,0.5982673015550972,18,Female,2019-08-07,0,10,7,7,226,1
13,immediate,12,2,1,0.4457739465742634,18,Female,2019-08-07,0,10,8,8,227,1
13,immediate,54,1,2,0.7379798335186933,18,Female,2019-08-07,0,10,9,9,228,1
13,immediate,56,1,1,0.7174856239707879,18,Female,2019-08-07,0,10,10,10,229,1
13,immediate,35,1,1,0.6321882081156218,18,Female,2019-08-07,0,10,11,11,230,1
13,immediate,6,2,2,0.3687396367222391,18,Female,2019-08-07,0,10,12,12,231,1
13,immediate,32,1,1,0.4674278848760878,18,Female,2019-08-07,0,10,13,13,232,1
13,immediate,38,1,1,0.6004482470652874,18,Female,2019-08-07,0,10,14,14,233,1
13,immediate,45,1,1,0.4644214326290239,18,Female,2019-08-07,0,10,15,15,234,1
13,immediate,37,1,1,0.5811585971587192,18,Female,2019-08-07,0,10,16,16,235,1
13,immediate,58,1,1,0.6686388135949528,18,Female,2019-08-07,0,10,17,17,236,1
13,immediate,7,2,2,0.912683957374611,18,Female,2019-08-07,0,10,18,18,237,1
13,immediate,0,2,2,0.8320341135240596,18,Female,2019-08-07,0,10,19,19,238,1
13,immediate,5,2,2,0.573709867465368,18,Female,2019-08-07,0,10,20,20,239,1
13,immediate,60,1,1,0.4371497200227168,18,Female,2019-08-07,0,10,21,21,240,1
13,immediate,53,2,2,0.5644388393811823,18,Female,2019-08-07,1,11,0,0,241,5
13,immediate,2,1,1,0.6035230277739174,18,Female,2019-08-07,1,11,1,1,242,5
13,immediate,42,1,1,0.5638810812724842,18,Female,2019-08-07,1,11,2,2,243,5
13,immediate,36,2,1,0.5069959377033229,18,Female,2019-08-07,1,11,3,3,244,5
13,immediate,47,1,2,0.7630709097920771,18,Female,2019-08-07,1,11,4,4,245,5
13,immediate,25,2,2,1.255136615181982,18,Female,2019-08-07,1,11,5,5,246,5
13,immediate,60,2,1,0.4789605540718185,18,Female,2019-08-07,1,11,6,6,247,5
13,immediate,20,2,1,0.5959462981591059,18,Female,2019-08-07,1,11,7,7,248,5
13,immediate,15,1,1,0.7318175957843778,18,Female,2019-08-07,1,11,8,8,249,5
13,immediate,19,1,1,0.4330858771245403,18,Female,2019-08-07,1,11,9,9,250,5
13,immediate,29,2,1,0.6613143736813072,18,Female,2019-08-07,1,11,10,10,251,5
13,immediate,49,2,2,0.7987157959614706,18,Female,2019-08-07,1,11,11,11,252,5
13,immediate,40,2,2,0.443353078506334,18,Female,2019-08-07,1,11,12,12,253,5
13,immediate,5,2,2,0.7355827722003596,18,Female,2019-08-07,1,11,13,13,254,5
13,immediate,33,2,2,0.3630968189536361,18,Female,2019-08-07,1,11,14,14,255,5
13,immediate,14,1,1,0.4611926810011937,18,Female,2019-08-07,1,11,15,15,256,5
13,immediate,51,1,1,0.7314144269512326,18,Female,2019-08-07,1,11,16,16,257,5
13,immediate,8,2,2,0.4223171881312737,18,Female,2019-08-07,1,11,17,17,258,5
13,immediate,35,1,1,0.730187915632996,18,Female,2019-08-07,1,11,18,18,259,5
13,immediate,61,2,2,0.4376709950629447,18,Female,2019-08-07,1,11,19,19,260,5
13,immediate,38,1,1,0.3456155544008652,18,Female,2019-08-07,1,11,20,20,261,5
13,immediate,9,2,2,0.3955095525343495,18,Female,2019-08-07,1,11,21,21,262,5
13,immediate,44,2,2,0.6545714986223174,18,Female,2019-08-07,1,11,22,22,263,5
13,immediate,47,1,2,1.3750227632699534,18,Female,2019-08-07,2,12,0,0,264,3
13,immediate,7,2,2,0.713442805214072,18,Female,2019-08-07,2,12,1,1,265,3
13,immediate,59,1,1,0.7882309328815609,18,Female,2019-08-07,2,12,2,2,266,3
13,immediate,46,1,1,1.1526182631150732,18,Female,2019-08-07,2,12,3,3,267,3
13,immediate,19,2,2,0.4219263864415552,18,Female,2019-08-07,2,12,4,4,268,3
13,immediate,60,1,1,0.9377979128603329,18,Female,2019-08-07,2,12,5,5,269,3
13,immediate,21,2,2,0.9698872456719982,18,Female,2019-08-07,2,12,6,6,270,3
13,immediate,23,2,2,0.44256962005420064,18,Female,2019-08-07,2,12,7,7,271,3
13,immediate,37,2,1,0.4308947287227056,18,Female,2019-08-07,2,12,8,8,272,3
13,immediate,13,1,2,0.6362542152637616,18,Female,2019-08-07,2,12,9,9,273,3
13,immediate,10,1,2,0.7573749133134697,18,Female,2019-08-07,2,12,10,10,274,3
13,immediate,41,1,1,1.291907838820407,18,Female,2019-08-07,2,12,11,11,275,3
13,immediate,55,2,2,0.468552367272423,18,Female,2019-08-07,2,12,12,12,276,3
13,immediate,29,1,1,0.45755210354400333,18,Female,2019-08-07,2,12,13,13,277,3
13,immediate,27,1,1,1.069989676527257,18,Female,2019-08-07,2,12,14,14,278,3
13,immediate,25,1,1,0.48110099719269783,18,Female,2019-08-07,2,12,15,15,279,3
13,immediate,0,2,2,0.67841782204232,18,Female,2019-08-07,2,12,16,16,280,3
13,immediate,52,2,2,0.6035820808774588,18,Female,2019-08-07,2,12,17,17,281,3
13,immediate,51,2,2,0.7239103542960947,18,Female,2019-08-07,2,12,18,18,282,3
13,immediate,43,1,1,0.7349560672737425,18,Female,2019-08-07,2,12,19,19,283,3
13,immediate,28,1,1,0.44195559144645813,18,Female,2019-08-07,2,12,20,20,284,3
13,immediate,32,2,2,0.6381915280744579,18,Female,2019-08-07,2,12,21,21,285,3
13,immediate,24,1,1,0.7432717336287169,18,Female,2019-08-07,2,12,22,22,286,3
13,immediate,52,1,2,1.0737996838342951,18,Female,2019-08-07,3,13,0,0,287,4
13,immediate,19,2,2,1.6372327653825778,18,Female,2019-08-07,3,13,1,1,288,4
13,immediate,53,1,1,1.0681491366030968,18,Female,2019-08-07,3,13,2,2,289,4
13,immediate,23,1,2,1.0666610602293076,18,Female,2019-08-07,3,13,3,3,290,4
13,immediate,48,2,1,0.9733970406050503,18,Female,2019-08-07,3,13,4,4,291,4
13,immediate,34,2,2,1.582229591665964,18,Female,2019-08-07,3,13,5,5,292,4
13,immediate,55,1,2,1.1492989221733296,18,Female,2019-08-07,3,13,6,6,293,4
13,immediate,5,1,1,1.197557984118248,18,Female,2019-08-07,3,13,7,7,294,4
13,immediate,7,1,1,0.5960161725124635,18,Female,2019-08-07,3,13,8,8,295,4
13,immediate,15,1,1,0.4235944047341036,18,Female,2019-08-07,3,13,9,9,296,4
13,immediate,58,2,2,0.34741651947115315,18,Female,2019-08-07,3,13,10,10,297,4
13,immediate,21,1,1,0.39717107807700813,18,Female,2019-08-07,3,13,11,11,298,4
13,immediate,51,2,2,0.32021313532823115,18,Female,2019-08-07,3,13,12,12,299,4
13,immediate,4,1,1,0.4759775993952644,18,Female,2019-08-07,3,13,13,13,300,4
13,immediate,3,2,2,0.6089985799426358,18,Female,2019-08-07,3,13,14,14,301,4
13,immediate,28,1,1,0.7019379620869586,18,Female,2019-08-07,3,13,15,15,302,4
13,immediate,30,1,1,0.4244455732896313,18,Female,2019-08-07,3,13,16,16,303,4
13,immediate,39,1,1,0.6523114034025639,18,Female,2019-08-07,3,13,17,17,304,4
13,immediate,20,1,1,0.6297021033733472,18,Female,2019-08-07,3,13,18,18,305,4
13,immediate,56,2,2,0.8850517425762519,18,Female,2019-08-07,4,14,0,0,306,6
13,immediate,63,1,2,0.7720942858541093,18,Female,2019-08-07,4,14,1,1,307,6
13,immediate,1,1,2,0.7784373930426227,18,Female,2019-08-07,4,14,2,2,308,6
13,immediate,23,1,2,0.4711321531158319,18,Female,2019-08-07,4,14,3,3,309,6
13,immediate,24,2,2,0.454893477168298,18,Female,2019-08-07,4,14,4,4,310,6
13,immediate,54,2,2,0.6194611821683793,18,Female,2019-08-07,4,14,5,5,311,6
13,immediate,49,1,1,0.611978442835607,18,Female,2019-08-07,4,14,6,6,312,6
13,immediate,6,2,2,0.49224657484228374,18,Female,2019-08-07,4,14,7,7,313,6
13,immediate,39,1,1,0.44954994424006145,18,Female,2019-08-07,4,14,8,8,314,6
13,immediate,3,1,2,1.2540467607814207,18,Female,2019-08-07,4,14,9,9,315,6
13,immediate,33,1,1,0.4616867483291571,18,Female,2019-08-07,4,14,10,10,316,6
13,immediate,48,2,2,0.40214730688421696,18,Female,2019-08-07,4,14,11,11,317,6
13,immediate,62,2,2,0.4375971013887465,18,Female,2019-08-07,4,14,12,12,318,6
13,immediate,41,1,1,0.56967044967314,18,Female,2019-08-07,4,14,13,13,319,6
13,immediate,37,1,1,0.5387906233572721,18,Female,2019-08-07,4,14,14,14,320,6
13,immediate,22,2,2,0.4331934712608927,18,Female,2019-08-07,4,14,15,15,321,6
13,immediate,34,2,2,0.6136291471284494,18,Female,2019-08-07,4,14,16,16,322,6
13,immediate,58,2,2,0.4455250578394043,18,Female,2019-08-07,4,14,17,17,323,6
13,immediate,0,2,2,0.5936664155105973,18,Female,2019-08-07,4,14,18,18,324,6
13,immediate,55,1,1,0.7192569078997622,18,Female,2019-08-07,4,14,19,19,325,6
13,immediate,35,1,1,0.7941835475576227,18,Female,2019-08-07,4,14,20,20,326,6
13,immediate,32,2,2,0.5509917365852743,18,Female,2019-08-07,4,14,21,21,327,6
13,immediate,53,1,2,0.5573920418064517,18,Female,2019-08-07,0,15,0,0,328,1
13,immediate,1,2,2,0.4365607348809135,18,Female,2019-08-07,0,15,1,1,329,1
13,immediate,47,1,1,0.6486899950123188,18,Female,2019-08-07,0,15,2,2,330,1
13,immediate,30,2,2,0.9936108252059057,18,Female,2019-08-07,0,15,3,3,331,1
13,immediate,20,2,2,0.6912713020155934,18,Female,2019-08-07,0,15,4,4,332,1
13,immediate,46,1,1,0.4774863907314284,18,Female,2019-08-07,0,15,5,5,333,1
13,immediate,49,1,1,1.0103485153413203,18,Female,2019-08-07,0,15,6,6,334,1
13,immediate,11,2,2,0.48920271199131093,18,Female,2019-08-07,0,15,7,7,335,1
13,immediate,13,2,2,0.9902073876965005,18,Female,2019-08-07,0,15,8,8,336,1
13,immediate,50,1,1,0.6074458852508542,18,Female,2019-08-07,0,15,9,9,337,1
13,immediate,7,2,2,0.7436872696034698,18,Female,2019-08-07,0,15,10,10,338,1
13,immediate,60,1,1,0.5472815939519933,18,Female,2019-08-07,0,15,11,11,339,1
13,immediate,28,2,2,0.9221129756988375,18,Female,2019-08-07,0,15,12,12,340,1
13,immediate,34,1,2,0.8581151795224287,18,Female,2019-08-07,1,16,0,0,341,5
13,immediate,47,1,1,1.784277157548786,18,Female,2019-08-07,1,16,1,1,342,5
13,immediate,55,1,1,1.0205446056534129,18,Female,2019-08-07,1,16,2,2,343,5
13,immediate,24,2,2,0.5068147590718581,18,Female,2019-08-07,1,16,3,3,344,5
13,immediate,39,1,1,0.8006345580615744,18,Female,2019-08-07,1,16,4,4,345,5
13,immediate,16,2,2,0.7332327060194075,18,Female,2019-08-07,1,16,5,5,346,5
13,immediate,38,1,1,0.7766123120472912,18,Female,2019-08-07,1,16,6,6,347,5
13,immediate,15,1,1,0.6609538714874361,18,Female,2019-08-07,1,16,7,7,348,5
13,immediate,28,2,1,0.7139680995751405,18,Female,2019-08-07,1,16,8,8,349,5
13,immediate,4,2,1,0.7567367687806836,18,Female,2019-08-07,1,16,9,9,350,5
13,immediate,12,2,2,0.6986461380365654,18,Female,2019-08-07,1,16,10,10,351,5
13,immediate,9,2,2,0.7729677152656222,18,Female,2019-08-07,1,16,11,11,352,5
13,immediate,43,1,1,0.6089333432682906,18,Female,2019-08-07,1,16,12,12,353,5
13,immediate,11,1,1,0.6813160617948597,18,Female,2019-08-07,1,16,13,13,354,5
13,immediate,18,1,1,0.5474587532626174,18,Female,2019-08-07,1,16,14,14,355,5
13,immediate,3,1,1,0.49017724278928654,18,Female,2019-08-07,1,16,15,15,356,5
13,immediate,54,1,1,1.4234042599237,18,Female,2019-08-07,1,16,16,16,357,5
13,immediate,60,2,2,0.47480086582254444,18,Female,2019-08-07,1,16,17,17,358,5
13,immediate,7,1,1,0.4477529984924331,18,Female,2019-08-07,1,16,18,18,359,5
13,immediate,46,1,1,0.7141650463127007,18,Female,2019-08-07,1,16,19,19,360,5
13,immediate,31,1,1,0.4370996330981143,18,Female,2019-08-07,1,16,20,20,361,5
13,immediate,2,1,1,0.50525773588015,18,Female,2019-08-07,1,16,21,21,362,5
13,immediate,33,2,2,0.8358942077557003,18,Female,2019-08-07,2,17,0,0,363,3
13,immediate,57,1,2,0.85767336337085,18,Female,2019-08-07,2,17,1,1,364,3
13,immediate,27,1,1,0.7062228676495579,18,Female,2019-08-07,2,17,2,2,365,3
13,immediate,56,1,1,0.7006078759532102,18,Female,2019-08-07,2,17,3,3,366,3
13,immediate,19,2,1,0.551310499671672,18,Female,2019-08-07,2,17,4,4,367,3
13,immediate,49,2,1,0.8300287814308831,18,Female,2019-08-07,2,17,5,5,368,3
13,immediate,24,1,1,0.47524082690324576,18,Female,2019-08-07,2,17,6,6,369,3
13,immediate,37,2,2,0.592144329493749,18,Female,2019-08-07,2,17,7,7,370,3
13,immediate,63,1,2,0.4243899211505777,18,Female,2019-08-07,2,17,8,8,371,3
13,immediate,31,1,2,0.5879855687817326,18,Female,2019-08-07,2,17,9,9,372,3
13,immediate,40,1,2,1.0414512593924883,18,Female,2019-08-07,2,17,10,10,373,3
13,immediate,50,2,2,0.6602548187802313,18,Female,2019-08-07,2,17,11,11,374,3
13,immediate,16,2,2,0.8778209837637405,18,Female,2019-08-07,2,17,12,12,375,3
13,immediate,2,2,2,0.5081599949553492,18,Female,2019-08-07,2,17,13,13,376,3
13,immediate,34,2,2,0.40186193508088763,18,Female,2019-08-07,2,17,14,14,377,3
13,immediate,42,1,1,0.784087940273821,18,Female,2019-08-07,2,17,15,15,378,3
13,immediate,12,1,1,0.6364956837114732,18,Female,2019-08-07,2,17,16,16,379,3
13,immediate,20,2,2,0.6935221218791412,18,Female,2019-08-07,2,17,17,17,380,3
13,immediate,52,2,2,0.47968124928047473,18,Female,2019-08-07,2,17,18,18,381,3
13,immediate,3,2,2,0.5279372194399912,18,Female,2019-08-07,2,17,19,19,382,3
13,immediate,28,1,1,0.47032581545136054,18,Female,2019-08-07,2,17,20,20,383,3
13,immediate,61,1,1,0.4913808748951851,18,Female,2019-08-07,2,17,21,21,384,3
13,immediate,53,2,2,0.5766365516465157,18,Female,2019-08-07,2,17,22,22,385,3
13,immediate,58,2,2,1.4177132103031909,18,Female,2019-08-07,3,18,0,0,386,4
13,immediate,43,2,2,0.9325288919626473,18,Female,2019-08-07,3,18,1,1,387,4
13,immediate,54,1,1,1.0446960883036809,18,Female,2019-08-07,3,18,2,2,388,4
13,immediate,49,2,2,0.7433771635151061,18,Female,2019-08-07,3,18,3,3,389,4
13,immediate,8,2,2,1.1385787742128741,18,Female,2019-08-07,3,18,4,4,390,4
13,immediate,0,2,2,0.4671644647496578,18,Female,2019-08-07,3,18,5,5,391,4
13,immediate,10,2,2,0.5361724993708776,18,Female,2019-08-07,3,18,6,6,392,4
13,immediate,55,1,1,0.4464618688543851,18,Female,2019-08-07,3,18,7,7,393,4
13,immediate,28,1,1,0.5144817688233161,18,Female,2019-08-07,3,18,8,8,394,4
13,immediate,63,1,1,0.6644791253456788,18,Female,2019-08-07,3,18,9,9,395,4
13,immediate,34,2,2,0.5137440687958588,18,Female,2019-08-07,3,18,10,10,396,4
13,immediate,35,2,2,0.674404066068746,18,Female,2019-08-07,3,18,11,11,397,4
13,immediate,26,2,2,0.9575553499180387,18,Female,2019-08-07,4,19,0,0,398,6
13,immediate,49,1,1,0.440266858193354,18,Female,2019-08-07,4,19,1,1,399,6
13,immediate,7,1,2,0.7161830547265708,18,Female,2019-08-07,4,19,2,2,400,6
13,immediate,33,1,2,0.7591199170656182,18,Female,2019-08-07,4,19,3,3,401,6
13,immediate,10,2,2,1.474759435897795,18,Female,2019-08-07,4,19,4,4,402,6
13,immediate,51,1,2,0.6075120494624571,18,Female,2019-08-07,4,19,5,5,403,6
13,immediate,23,1,1,0.6317834933906852,18,Female,2019-08-07,4,19,6,6,404,6
13,immediate,44,2,2,0.5448548514905269,18,Female,2019-08-07,4,19,7,7,405,6
13,immediate,11,1,1,0.48594984443661815,18,Female,2019-08-07,4,19,8,8,406,6
13,immediate,58,2,2,0.5967217179695581,18,Female,2019-08-07,4,19,9,9,407,6
13,immediate,56,2,2,0.46041787954891333,18,Female,2019-08-07,4,19,10,10,408,6
13,immediate,13,1,1,0.9131267010616284,18,Female,2019-08-07,4,19,11,11,409,6
13,immediate,52,2,2,0.40063882472713885,18,Female,2019-08-07,4,19,12,12,410,6
13,immediate,20,2,2,0.5321241154015297,18,Female,2019-08-07,4,19,13,13,411,6
13,immediate,0,2,2,0.3906607052904292,18,Female,2019-08-07,4,19,14,14,412,6
13,immediate,54,2,2,1.0398388932408125,18,Female,2019-08-07,4,19,15,15,413,6
13,immediate,61,1,1,0.6489574344614084,18,Female,2019-08-07,4,19,16,16,414,6
13,immediate,57,1,1,0.7222772731820442,18,Female,2019-08-07,4,19,17,17,415,6
13,immediate,9,2,2,0.8224304093182582,18,Female,2019-08-07,0,20,0,0,416,1
13,immediate,27,2,2,1.2195235744002275,18,Female,2019-08-07,0,20,1,1,417,1
13,immediate,12,2,1,0.7786235185321857,18,Female,2019-08-07,0,20,2,2,418,1
13,immediate,24,2,2,0.4576272339309071,18,Female,2019-08-07,0,20,3,3,419,1
13,immediate,31,2,2,0.5534614548632817,18,Female,2019-08-07,0,20,4,4,420,1
13,immediate,47,1,2,0.3843021391749062,18,Female,2019-08-07,0,20,5,5,421,1
13,immediate,3,2,2,1.3474965967161552,18,Female,2019-08-07,0,20,6,6,422,1
13,immediate,44,1,1,0.4931923520343844,18,Female,2019-08-07,0,20,7,7,423,1
13,immediate,16,2,2,0.7177768701676541,18,Female,2019-08-07,0,20,8,8,424,1
13,immediate,62,1,1,0.5024575057268521,18,Female,2019-08-07,0,20,9,9,425,1
